File: li-ion_batteries_cycling_stats_aggregated.csv
,Internal_index,Cell ID,Cycle,Cycle_time,Min_current,Max_current,Min_voltage,Max_voltage,Charge_capacity,Charge_capacity_ratio,Discharge_capacity,Discharge_capacity_ratio,Charge_energy,Charge_energy_ratio,Discharge_energy,Discharge_energy_ratio
0,0,CALCE_CX2-16_prism_LCO_25C_0-100_0.5-0.5C_a,0,28594.592,-0.55,1.275,2.699,4.2,1.268,0.788644,1.269,0.788022,5.073,0.197122,4.725,0.21164
47,47,CALCE_CX2-16_prism_LCO_25C_0-100_0.5-0.5C_a,921,13366.9,-0.55,1.1929,2.7251,4.1999,1.0926,0.861672,1.0917,0.860284,4.3851,0.864741,4.05275,0.856818
94,94,CALCE_CX2-16_prism_LCO_25C_0-100_0.5-0.5C_a,1861,14419.5,-0.6749,1.24755,2.699,4.19985,0.8702,0.686278,0.8707,0.686131,3.5291,0.695938,3.1129,0.658118
141,39,CALCE_CX2-25_prism_LCO_25C_0-100_0.5-0.5C_b,761,11788.4,-0.6745,1.1778,2.72495,4.1996,1.0806,0.789335,1.0782,0.78989,4.36415,0.799002,3.966,0.782712
188,86,CALCE_CX2-25_prism_LCO_25C_0-100_0.5-0.5C_b,1701,12259.1,-0.6749,1.1912,2.699,4.1999,0.7609,0.555807,0.7597,0.556557,3.10705,0.568848,2.72455,0.537705
235,41,CALCE_CX2-33_prism_LCO_25C_0-100_0.5-0.5C_d,801,14246.3,-0.674,1.1386,2.7289,4.19985,1.0052,0.775617,1.00625,0.777027,4.0673,0.782474,3.682,0.769488
282,2,CALCE_CX2-34_prism_LCO_25C_0-100_0.5-0.5C_e,21,12853.3,-1.35,1.13465,2.699,4.1994,1.30395,0.965174,1.30715,0.965399,5.20415,0.965699,4.70495,0.965118
329,49,CALCE_CX2-34_prism_LCO_25C_0-100_0.5-0.5C_e,961,10902.7,-1.35,1.1832,2.699,4.19905,0.96415,0.713657,0.969,0.715657,3.9066,0.724921,3.4093,0.699344
376,8,CALCE_CX2-36_prism_LCO_25C_0-100_0.5-0.5C_f,141,12389.7,-1.3502,1.14885,2.699,4.199,1.23925,0.905885,1.23705,0.908927,4.96635,0.909255,4.4361,0.905696
423,55,CALCE_CX2-36_prism_LCO_25C_0-100_0.5-0.5C_f,1081,10862.3,-1.3496,1.18435,2.699,4.19935,0.9263,0.67712,0.92445,0.679243,3.76075,0.68853,3.23235,0.659933
470,2,CALCE_CX2-37_prism_LCO_25C_0-100_0.5-0.5C_g,21,13048.5,-1.3499,1.12755,2.69895,4.19985,1.31935,0.963733,1.32015,0.967143,5.26615,0.96379,4.7535,0.967141
517,49,CALCE_CX2-37_prism_LCO_25C_0-100_0.5-0.5C_g,961,10873.1,-1.34935,1.1357,2.699,4.19895,0.9634,0.703725,0.9659,0.707619,3.89805,0.713406,3.39545,0.690834
564,31,CALCE_CX2-38_prism_LCO_25C_0-100_0.5-0.5C_h,601,11761.9,-1.349,1.1519,2.699,4.2,1.13245,0.817063,1.11505,0.818686,4.54755,0.822044,4.00025,0.814052
611,78,CALCE_CX2-38_prism_LCO_25C_0-100_0.5-0.5C_h,1541,9265.49,-1.349,1.17975,2.699,4.2,0.6764,0.488023,0.66245,0.48638,2.7733,0.50132,2.2506,0.457998
658,26,HNEI_18650_NMC_LCO_25C_0-100_0.5-1.5C_a,501,9733.67,-4.1983,1.34955,2.999,4.30535,1.91215,0.671873,1.9265,0.670787,7.8059,0.681678,6.6391,0.617131
705,17,HNEI_18650_NMC_LCO_25C_0-100_0.5-1.5C_b,321,10451.4,-4.20155,1.34915,2.999,4.3007,2.1339,0.749263,2.13955,0.748094,8.6876,0.758345,7.3729,0.688927
752,8,HNEI_18650_NMC_LCO_25C_0-100_0.5-1.5C_c,141,10903.1,-4.19595,1.37845,2.999,4.30075,2.4168,0.851886,2.43065,0.85526,9.745,0.853776,8.5584,0.803908
799,55,HNEI_18650_NMC_LCO_25C_0-100_0.5-1.5C_c,1081,8189.625,-3.0764,1.0877,2.24925,3.23715,0.87565,0.308654,0.88425,0.311137,3.63835,0.318762,2.9919,0.281035
846,46,HNEI_18650_NMC_LCO_25C_0-100_0.5-1.5C_d,901,8903.97,-4.19905,1.35095,2.999,4.3017,1.3539,0.477398,1.3563,0.478413,5.60265,0.490729,4.5524,0.428703
893,37,HNEI_18650_NMC_LCO_25C_0-100_0.5-1.5C_e,721,9269.69,-4.19715,1.352,2.9992,4.3015,1.49715,0.528468,1.50905,0.530235,6.18515,0.541892,5.11535,0.480992
940,28,HNEI_18650_NMC_LCO_25C_0-100_0.5-1.5C_f,541,10370.7,-4.20175,1.3497,2.999,4.30155,1.8279,0.642044,1.80645,0.633398,7.4883,0.651723,6.1821,0.581298
987,19,HNEI_18650_NMC_LCO_25C_0-100_0.5-1.5C_g,361,10466,-3.9888,1.3471,2.999,4.27015,1.8679,0.65748,1.86485,0.655714,7.5957,0.66425,6.4699,0.607616
1034,10,HNEI_18650_NMC_LCO_25C_0-100_0.5-1.5C_j,181,10869.4,-4.1991,1.3518,2.99915,4.3,2.3556,0.825368,2.3686,0.825009,9.5127,0.828416,8.33835,0.776094
1081,1,HNEI_18650_NMC_LCO_25C_0-100_0.5-1.5C_l,1,19096.9,-1.402,1.35,2.799,4.353,2.85,1.0,2.842,1.0,11.48,1.0,10.633,1.0
1128,48,HNEI_18650_NMC_LCO_25C_0-100_0.5-1.5C_l,941,8424.25,-4.20285,1.3524,2.999,4.302,1.1664,0.409263,1.1596,0.408023,4.85045,0.422513,3.8872,0.365579
1175,39,HNEI_18650_NMC_LCO_25C_0-100_0.5-1.5C_m,761,9049.875,-4.20145,1.348,2.99915,4.2998,1.4491,0.510067,1.46765,0.514243,5.98415,0.522633,4.97645,0.466615
1222,30,HNEI_18650_NMC_LCO_25C_0-100_0.5-1.5C_n,581,9652.74,-3.9957,1.289,2.9993,4.3,1.7497,0.615009,1.78935,0.626523,7.16345,0.625028,6.1917,0.580291
1269,21,HNEI_18650_NMC_LCO_25C_0-100_0.5-1.5C_o,401,10461.125,-3.98905,1.35095,3.02645,4.3009,1.9686,0.692194,1.9799,0.693971,8.03905,0.702162,6.7863,0.636017
1316,12,HNEI_18650_NMC_LCO_25C_0-100_0.5-1.5C_p,221,11002.5,-4.20035,1.36175,2.999,4.30055,2.3079,0.809222,2.3203,0.814712,9.3672,0.813831,8.03755,0.756404
1363,3,HNEI_18650_NMC_LCO_25C_0-100_0.5-1.5C_s,41,11517,-4.204,1.348,2.999,4.30085,2.5673,0.902073,2.57235,0.900368,10.31935,0.899917,9.08805,0.851818
1410,50,HNEI_18650_NMC_LCO_25C_0-100_0.5-1.5C_s,981,8656.69,-3.99955,1.25695,2.999,4.2751,1.20955,0.425,1.22045,0.427179,5.00315,0.436309,4.128,0.386915
1457,41,HNEI_18650_NMC_LCO_25C_0-100_0.5-1.5C_t,801,8472.72,-4.20205,1.34885,2.999,4.27695,1.17015,0.411735,1.18325,0.415613,4.8645,0.42507,3.9636,0.372169
1504,1,OX_1-8_pouch_LCO_40C_0-100_2-1.84C_h,1,1.36768e+06,-0.74,0.74,2.72,4.2,0.695,1.0,0.713,1.0,2.658,1.0,2.665,1.0
1551,43,SNL_18650_LFP_15C_0-100_0.5-1C_a,841,11011.6,-1.1,0.54995,1.99705,3.6,1.02,0.983607,1.01725,0.984753,3.47325,0.98953,3.0989,0.943636
1598,90,SNL_18650_LFP_15C_0-100_0.5-1C_a,1781,10786.5,-1.1,0.55,1.9971,3.6,1.00215,0.966393,0.9996,0.967667,3.3782,0.96245,3.1118,0.947564
1645,137,SNL_18650_LFP_15C_0-100_0.5-1C_a,2721,10563.8,-1.1,0.5491,1.9974,3.6,0.984,0.948891,0.979,0.947725,3.3002,0.940228,3.0776,0.93715
1692,184,SNL_18650_LFP_15C_0-100_0.5-1C_a,3661,10430.1,-1.1,0.54905,1.9968,3.6,0.97105,0.936403,0.966,0.93514,3.2598,0.928718,3.0309,0.922929
1739,2,SNL_18650_LFP_15C_0-100_0.5-1C_b,21,11411.9,-1.0993,0.55,1.9961,3.6,1.042,1,1.0439,0.999904,3.5144,0.997559,3.25075,0.978552
1786,49,SNL_18650_LFP_15C_0-100_0.5-1C_b,961,11034.4,-1.099,0.55,1.9969,3.6,1.0211,0.979942,1.023,0.979885,3.44105,0.976739,3.1854,0.95888
1833,96,SNL_18650_LFP_15C_0-100_0.5-1C_b,1901,10828.9,-1.099,0.55,1.9977,3.6,1.004,0.963532,1.00535,0.962979,3.38285,0.960219,3.12715,0.941346
1880,143,SNL_18650_LFP_15C_0-100_0.5-1C_b,2841,10625.1,-1.099,0.55,1.9977,3.6,0.985,0.945298,0.983,0.941571,3.32165,0.942847,3.0562,0.919988
1927,11,SNL_18650_LFP_15C_0-100_0.5-2C_a,201,9410.49,-2.2,0.5495,1.99675,3.6,1.02415,0.992393,1.02615,0.991449,3.44745,0.988374,3.09095,0.938928
1974,58,SNL_18650_LFP_15C_0-100_0.5-2C_a,1141,9148.52,-2.2,0.549,1.9976,3.6,1.00025,0.969234,1.00275,0.968841,3.36645,0.965152,3.02085,0.917634
2021,105,SNL_18650_LFP_15C_0-100_0.5-2C_a,2081,8909.46,-2.2,0.549,1.9981,3.6,0.9742,0.943992,0.9766,0.943575,3.2809,0.940625,2.93905,0.892786
2068,152,SNL_18650_LFP_15C_0-100_0.5-2C_a,3021,8635.58,-2.1991,0.549,1.9981,3.6,0.94535,0.916037,0.9453,0.913333,3.1753,0.91035,2.8731,0.872752
2115,10,SNL_18650_LFP_15C_0-100_0.5-2C_b,181,9374.4,-2.2,0.54905,1.997,3.6,1.02005,0.989379,1.02145,0.988819,3.436,0.98594,3.0689,0.933648
2162,57,SNL_18650_LFP_15C_0-100_0.5-2C_b,1121,9115.49,-2.2,0.549,1.99765,3.6,0.99665,0.966683,0.99835,0.966457,3.354,0.96241,3.0066,0.914694
2209,104,SNL_18650_LFP_15C_0-100_0.5-2C_b,2061,8889.57,-2.2,0.549,1.99775,3.6,0.9715,0.942289,0.97335,0.942256,3.27815,0.940646,2.90495,0.883769
2256,151,SNL_18650_LFP_15C_0-100_0.5-2C_b,3001,8597.28,-2.2,0.5492,1.9983,3.6,0.942,0.913676,0.94175,0.911665,3.1616,0.907202,2.8692,0.872893
2303,9,SNL_18650_LFP_25C_0-100_0.5-0.5C_a,161,14806.4,-0.55,0.5481,1.99725,3.6,1.0498,0.982039,1.0525,0.983645,3.5112,0.980782,3.39,0.983179
2350,56,SNL_18650_LFP_25C_0-100_0.5-0.5C_a,1101,14313.9,-0.551,0.548,1.99855,3.6,1.0165,0.950889,1.01985,0.953131,3.4039,0.95081,3.2788,0.950928
2397,103,SNL_18650_LFP_25C_0-100_0.5-0.5C_a,2041,14577.1,-0.52345,0.5206,2.02985,3.552,0.9867,0.923012,0.99145,0.926589,3.301,0.922067,3.18875,0.924811
2444,150,SNL_18650_LFP_25C_0-100_0.5-0.5C_a,2981,13507.7,-0.553,0.547,1.9985,3.6,0.959,0.8971,0.965,0.901869,3.2132,0.897542,3.09405,0.897346
2491,43,SNL_18650_LFP_25C_0-100_0.5-1C_a,841,10778.6,-1.09995,0.549,1.9939,3.6,1.005,0.973837,1.0072,0.97314,3.35825,0.971435,3.1999,0.960354
2538,90,SNL_18650_LFP_25C_0-100_0.5-1C_a,1781,10531.7,-1.0992,0.54905,1.99495,3.6,0.982,0.95155,0.984,0.950725,3.2866,0.950709,3.10945,0.933208
2585,137,SNL_18650_LFP_25C_0-100_0.5-1C_a,2721,10285.5,-1.099,0.54955,1.99595,3.6,0.9595,0.929748,0.9593,0.92686,3.21675,0.930503,3.0227,0.907173
2632,5,SNL_18650_LFP_25C_0-100_0.5-1C_b,81,11152.5,-1.1,0.55,1.99445,3.6,1.0374,0.996542,1.036,0.997113,3.46725,0.994051,3.296,0.986236
2679,52,SNL_18650_LFP_25C_0-100_0.5-1C_b,1021,10899.2,-1.01685,0.55,1.996,3.6,1.0655,1.02354,1.06415,1.02421,3.59795,1.03152,3.32055,0.993582
2726,99,SNL_18650_LFP_25C_0-100_0.5-1C_b,1961,10553.9,-1.0994,0.55,1.9964,3.6,0.98655,0.947695,0.985,0.948027,3.3056,0.947706,3.10785,0.929937
2773,146,SNL_18650_LFP_25C_0-100_0.5-1C_b,2901,10193.9,-1.0993,0.55,1.99515,3.6,0.9512,0.913737,0.948,0.912416,3.196,0.916284,2.97105,0.889004
2820,14,SNL_18650_LFP_25C_0-100_0.5-1C_c,261,11119,-1.1,0.55,1.99585,3.6002,1.0398,0.990286,1.042,0.989554,3.47345,0.987898,3.3173,0.978266
2867,61,SNL_18650_LFP_25C_0-100_0.5-1C_c,1201,10821.7,-1.10005,0.5494,1.99745,3.6,1.01425,0.965952,1.01695,0.965764,3.39155,0.964605,3.22685,0.951592
2914,108,SNL_18650_LFP_25C_0-100_0.5-1C_c,2141,10586.9,-1.1009,0.549,1.9968,3.6,0.99195,0.944714,0.9911,0.941216,3.3277,0.946445,3.12225,0.920746
2961,2,SNL_18650_LFP_25C_0-100_0.5-1C_d,21,11289.5,-1.1,0.549,1.99545,3.6,1.047,0.998093,1.04905,0.997196,3.5014,0.996414,3.34005,0.985847
3008,49,SNL_18650_LFP_25C_0-100_0.5-1C_d,961,10878.4,-1.0992,0.549,1.9962,3.6,1.01755,0.970019,1.02005,0.969629,3.4057,0.96918,3.2306,0.953542
3055,96,SNL_18650_LFP_25C_0-100_0.5-1C_d,1901,10663.5,-1.0991,0.549,1.9969,3.60015,0.9983,0.951668,0.9974,0.948099,3.3504,0.953443,3.14145,0.927228
3102,143,SNL_18650_LFP_25C_0-100_0.5-1C_d,2841,10421.5,-1.099,0.549,1.99675,3.6,0.975,0.929457,0.974,0.925856,3.27175,0.931061,3.0663,0.905047
3149,37,SNL_18650_LFP_25C_0-100_0.5-2C_a,721,9041.31,-2.19975,0.549,1.9933,3.6,1.00195,0.964341,1.00295,0.965303,3.3413,0.960972,3.13215,0.935529
3196,84,SNL_18650_LFP_25C_0-100_0.5-2C_a,1661,8840.05,-2.19925,0.549,1.99315,3.6,0.9797,0.942926,0.98085,0.944033,3.2673,0.939689,3.06305,0.914889
3243,131,SNL_18650_LFP_25C_0-100_0.5-2C_a,2601,8669.24,-2.199,0.549,1.9926,3.60035,0.95965,0.923628,0.96,0.923965,3.2033,0.921283,2.98715,0.892219
3290,0,SNL_18650_LFP_25C_0-100_0.5-2C_b,0,30789.343,-0.55,0.55,1.999,3.6,1.035,0.966184,1.033,0.968054,3.466,0.288517,3.325,0.300752
3337,47,SNL_18650_LFP_25C_0-100_0.5-2C_b,921,9064.69,-2.2,0.549,1.99455,3.6,1.004,0.969112,1.003,0.970019,3.35065,0.966162,3.12315,0.938165
3384,94,SNL_18650_LFP_25C_0-100_0.5-2C_b,1861,8856.23,-2.2,0.549,1.9932,3.6,0.981,0.946911,0.9801,0.947872,3.2734,0.943887,3.0481,0.91562
3431,141,SNL_18650_LFP_25C_0-100_0.5-2C_b,2801,8714.61,-2.2013,0.54915,1.9942,3.6,0.9644,0.930888,0.96165,0.930029,3.22185,0.929022,2.9783,0.894653
3478,188,SNL_18650_LFP_25C_0-100_0.5-2C_b,3741,8528.24,-2.20075,0.54905,1.9939,3.6,0.9423,0.909556,0.9394,0.908511,3.15145,0.908723,2.8942,0.86939
3525,31,SNL_18650_LFP_25C_0-100_0.5-3C_a,601,8494.38,-3.3,0.549,1.9921,3.6,1.0008,0.95954,0.99885,0.962283,3.3403,0.957106,3.04815,0.911528
3572,78,SNL_18650_LFP_25C_0-100_0.5-3C_a,1541,8191.19,-3.3,0.549,1.99385,3.6,0.96475,0.924976,0.9626,0.92736,3.22115,0.922966,2.9385,0.878738
3619,125,SNL_18650_LFP_25C_0-100_0.5-3C_a,2481,7864.96,-3.3,0.549,1.99555,3.6,0.9227,0.88466,0.9207,0.886994,3.08675,0.884456,2.78555,0.832999
3666,172,SNL_18650_LFP_25C_0-100_0.5-3C_a,3421,7435.04,-3.3,0.549,1.99695,3.6,0.8677,0.831927,0.8662,0.834489,2.9013,0.831318,2.6294,0.786304
3713,219,SNL_18650_LFP_25C_0-100_0.5-3C_a,4361,6930.03,-3.3,0.549,1.9965,3.6,0.8037,0.770566,0.8019,0.772543,2.6895,0.77063,2.4163,0.722578
3760,36,SNL_18650_LFP_25C_0-100_0.5-3C_b,701,8505.92,-3.3,0.54955,1.99485,3.6,1.00215,0.955338,1.0037,0.955905,3.35615,0.95508,3.0147,0.891923
3807,83,SNL_18650_LFP_25C_0-100_0.5-3C_b,1641,8111.98,-3.3,0.54995,1.9951,3.6,0.9548,0.9102,0.95615,0.910619,3.19625,0.909576,2.88905,0.854749
3854,130,SNL_18650_LFP_25C_0-100_0.5-3C_b,2581,7718.86,-3.3,0.54995,1.9966,3.6,0.90205,0.859914,0.9034,0.860381,3.02645,0.861255,2.70005,0.798831
3901,177,SNL_18650_LFP_25C_0-100_0.5-3C_b,3521,7198.15,-3.30005,0.55,1.99805,3.6,0.83415,0.795186,0.8358,0.796,2.79865,0.796429,2.499,0.739349
3948,20,SNL_18650_LFP_25C_0-100_0.5-3C_c,381,8495.93,-3.3,0.55,1.9918,3.6,0.999,0.956897,0.9979,0.958598,3.3457,0.956187,2.99635,0.8947
3995,67,SNL_18650_LFP_25C_0-100_0.5-3C_c,1321,8162.71,-3.3,0.55,1.9947,3.6,0.95685,0.916523,0.95555,0.917915,3.2158,0.919063,2.8132,0.840012
4042,114,SNL_18650_LFP_25C_0-100_0.5-3C_c,2261,7595.61,-3.3,0.55,1.99685,3.6,0.88755,0.850144,0.8863,0.851393,2.97165,0.849286,2.6832,0.801194
4089,161,SNL_18650_LFP_25C_0-100_0.5-3C_c,3201,6927.36,-3.3,0.55,1.9969,3.6,0.802,0.768199,0.80085,0.769308,2.68975,0.76872,2.39315,0.714586
4136,29,SNL_18650_LFP_25C_0-100_0.5-3C_d,561,8590.76,-3.29975,0.549,1.9916,3.6,1.01925,0.955248,1.0176,0.957291,3.4051,0.952742,3.1112,0.907585
4183,76,SNL_18650_LFP_25C_0-100_0.5-3C_d,1501,8263.65,-3.3,0.549,1.99635,3.6,0.9779,0.916495,0.97635,0.918485,3.2699,0.914913,2.9786,0.868903
4230,123,SNL_18650_LFP_25C_0-100_0.5-3C_d,2441,7876.69,-3.3,0.549,1.9972,3.6,0.9271,0.868885,0.9256,0.870743,3.1039,0.868467,2.8137,0.820799
4277,170,SNL_18650_LFP_25C_0-100_0.5-3C_d,3381,7384.21,-3.3,0.54905,1.99735,3.6,0.86045,0.80642,0.85925,0.808325,2.88575,0.807429,2.59,0.755543
4324,13,SNL_18650_LFP_25C_20-80_0.5-0.5C_a,241,4875.04,-0.55,0.548,3.159,3.39,0.29465,0.275117,0.2958,0.275933,0.99345,0.276496,0.9512,0.27603
4371,60,SNL_18650_LFP_25C_20-80_0.5-0.5C_a,1181,6486.27,-0.55,0.549,3.159,3.39,0.44975,0.419935,0.4502,0.419963,1.51195,0.420804,1.45185,0.421315
4418,107,SNL_18650_LFP_25C_20-80_0.5-0.5C_a,2121,7765.3,-0.5505,0.54805,3.159,3.39,0.546,0.509804,0.54705,0.510308,1.82945,0.509171,1.7701,0.513668
4465,154,SNL_18650_LFP_25C_20-80_0.5-0.5C_a,3061,7333.58,-0.551,0.548,3.159,3.39,0.5126,0.478618,0.51405,0.479524,1.7194,0.478542,1.66135,0.48211
4512,201,SNL_18650_LFP_25C_20-80_0.5-0.5C_a,4001,7381.28,-0.551,0.548,3.159,3.39,0.51625,0.482026,0.5179,0.483116,1.7313,0.481854,1.67385,0.485737
4559,248,SNL_18650_LFP_25C_20-80_0.5-0.5C_a,4941,4577.15,-0.551,0.548,3.159,3.39025,0.27405,0.255882,0.2763,0.257743,0.92455,0.25732,0.88755,0.257559
4606,295,SNL_18650_LFP_25C_20-80_0.5-0.5C_a,5881,6752.97,-0.551,0.548,3.159,3.39,0.4679,0.436881,0.46995,0.438386,1.57215,0.437559,1.51625,0.440003
4653,342,SNL_18650_LFP_25C_20-80_0.5-0.5C_a,6821,7674.66,-0.55105,0.548,3.159,3.39,0.5398,0.504015,0.54045,0.504151,1.80725,0.502992,1.74885,0.507501
4700,19,SNL_18650_LFP_25C_20-80_0.5-0.5C_b,361,7844.52,-0.551,0.54825,3.159,3.39,0.5519,0.528134,0.55355,0.529207,1.8483,0.528237,1.79075,0.53138
4747,66,SNL_18650_LFP_25C_20-80_0.5-0.5C_b,1301,7940.49,-0.551,0.548,3.159,3.39,0.5593,0.535215,0.56055,0.535899,1.87155,0.534881,1.8144,0.538398
4794,113,SNL_18650_LFP_25C_20-80_0.5-0.5C_b,2241,7507.96,-0.551,0.548,3.159,3.39,0.5265,0.503828,0.5281,0.504876,1.76545,0.504558,1.7068,0.506469
4841,160,SNL_18650_LFP_25C_20-80_0.5-0.5C_b,3181,7804.97,-0.551,0.548,3.159,3.39,0.5443,0.520861,0.54585,0.521845,1.8227,0.52092,1.76565,0.523932
4888,207,SNL_18650_LFP_25C_20-80_0.5-0.5C_b,4121,7635.12,-0.551,0.548,3.159,3.39,0.53565,0.512584,0.538,0.51434,1.79515,0.513047,1.73955,0.516187
4935,254,SNL_18650_LFP_25C_20-80_0.5-0.5C_b,5061,8060.22,-0.5533,0.54765,3.159,3.39,0.56915,0.544641,0.5712,0.54608,1.90365,0.544055,1.849,0.548665
4982,301,SNL_18650_LFP_25C_20-80_0.5-0.5C_b,6001,7621.18,-0.552,0.5476,3.159,3.39005,0.5362,0.51311,0.53685,0.513241,1.79515,0.513047,1.73645,0.515267
5029,348,SNL_18650_LFP_25C_20-80_0.5-0.5C_b,6941,7544.01,-0.552,0.547,3.159,3.39,0.52915,0.506364,0.53035,0.507027,1.7718,0.506373,1.7157,0.50911
5076,22,SNL_18650_LFP_25C_20-80_0.5-0.5C_c,421,8103.45,-0.5507,0.54905,3.159,3.39,0.57045,0.537147,0.57345,0.537441,1.909,0.537141,1.8567,0.539895
5123,69,SNL_18650_LFP_25C_20-80_0.5-0.5C_c,1361,7799.89,-0.551,0.549,3.159,3.39,0.5479,0.515913,0.5518,0.517151,1.8354,0.516432,1.7853,0.519133
5170,116,SNL_18650_LFP_25C_20-80_0.5-0.5C_c,2301,7922.02,-0.551,0.549,3.159,3.39,0.55695,0.524435,0.56105,0.52582,1.86475,0.52469,1.81645,0.528191
5217,163,SNL_18650_LFP_25C_20-80_0.5-0.5C_c,3241,7696.0,-0.551,0.549,3.159,3.39,0.53845,0.507015,0.5432,0.509091,1.8041,0.507625,1.757,0.510904
5264,210,SNL_18650_LFP_25C_20-80_0.5-0.5C_c,4181,7940.32,-0.55155,0.549,3.159,3.39,0.55825,0.525659,0.56295,0.527601,1.86845,0.525732,1.82245,0.529936
5311,257,SNL_18650_LFP_25C_20-80_0.5-0.5C_c,5121,13494.4,-0.552,0.548,2.96025,3.43205,0.6593,0.62081,0.66385,0.622165,2.2086,0.621441,2.14655,0.624179
5358,6,SNL_18650_LFP_25C_20-80_0.5-0.5C_d,101,8246.34,-0.5503,0.549,3.159,3.39,0.582,0.557471,0.58545,0.558103,1.9469,0.557372,1.8967,0.56132
5405,53,SNL_18650_LFP_25C_20-80_0.5-0.5C_d,1041,8230.99,-0.551,0.549,3.159,3.39,0.57975,0.555316,0.5836,0.556339,1.94035,0.555497,1.89045,0.55947
5452,100,SNL_18650_LFP_25C_20-80_0.5-0.5C_d,1981,7834.12,-0.551,0.549,3.159,3.39,0.5528,0.529502,0.55585,0.529886,1.8512,0.529974,1.79865,0.532302
5499,147,SNL_18650_LFP_25C_20-80_0.5-0.5C_d,2921,7808.48,-0.551,0.54865,3.159,3.39,0.54765,0.524569,0.5517,0.525929,1.8341,0.525079,1.7849,0.528233
5546,194,SNL_18650_LFP_25C_20-80_0.5-0.5C_d,3861,7819.11,-0.551,0.548,3.159,3.39,0.5481,0.525,0.5529,0.527073,1.8358,0.525565,1.7892,0.529506
5593,241,SNL_18650_LFP_25C_20-80_0.5-0.5C_d,4801,7709.94,-0.551,0.548,3.159,3.39,0.5398,0.51705,0.5446,0.519161,1.808,0.517607,1.76175,0.521382
5640,288,SNL_18650_LFP_25C_20-80_0.5-0.5C_d,5741,7614.59,-0.552,0.548,3.159,3.39,0.5341,0.51159,0.5372,0.512107,1.78895,0.512153,1.737,0.514057
5687,4,SNL_18650_LFP_25C_20-80_0.5-3C_a,61,5643.69,-3.3,0.549,2.9439,3.396,0.66,0.625,0.66,0.625592,2.20585,0.623826,2.02835,0.596574
5734,51,SNL_18650_LFP_25C_20-80_0.5-3C_a,1001,5643.13,-2.7227,0.5216,2.77915,3.3978,0.6682,0.632765,0.6757,0.640474,2.2373,0.632721,2.09345,0.615721
5781,98,SNL_18650_LFP_25C_20-80_0.5-3C_a,1941,5645.09,-3.301,0.549,2.9852,3.5298,0.66,0.625,0.66,0.625592,2.2229,0.628648,2.0283,0.596559
5828,145,SNL_18650_LFP_25C_20-80_0.5-3C_a,2881,5645.88,-3.301,0.549,2.99265,3.5618,0.66,0.625,0.66,0.625592,2.22265,0.628577,2.0375,0.599265
5875,43,SNL_18650_LFP_25C_40-60_0.5-0.5C_a,841,2438.24,-0.55065,0.5486,3.233,3.355,0.1376,0.12896,0.1382,0.128798,0.4608,0.128823,0.45125,0.13057
5922,90,SNL_18650_LFP_25C_40-60_0.5-0.5C_a,1781,2152.21,-0.55005,0.54895,3.233,3.355,0.118,0.11059,0.11885,0.110764,0.3961,0.110735,0.3877,0.112182
5969,137,SNL_18650_LFP_25C_40-60_0.5-0.5C_a,2721,2057.07,-0.5501,0.54885,3.233,3.355,0.1106,0.103655,0.1113,0.103728,0.3709,0.10369,0.3633,0.105122
6016,184,SNL_18650_LFP_25C_40-60_0.5-0.5C_a,3661,1945.61,-0.55095,0.5481,3.233,3.355,0.1018,0.0954077,0.10245,0.09548,0.3411,0.0953592,0.3343,0.0967303
6063,231,SNL_18650_LFP_25C_40-60_0.5-0.5C_a,4601,2175.9,-0.5507,0.5483,3.233,3.355,0.11965,0.112137,0.12025,0.112069,0.40065,0.112007,0.39265,0.113614
6110,278,SNL_18650_LFP_25C_40-60_0.5-0.5C_a,5541,1694.12,-0.55095,0.54805,3.233,3.355,0.08255,0.0773664,0.08315,0.077493,0.27715,0.0774811,0.2714,0.0785301
6157,325,SNL_18650_LFP_25C_40-60_0.5-0.5C_a,6481,1771.8,-0.551,0.548,3.233,3.355,0.0887,0.0831303,0.08895,0.0828984,0.29705,0.0830445,0.29105,0.0842159
6204,372,SNL_18650_LFP_25C_40-60_0.5-0.5C_a,7421,1469.43,-0.551,0.548,3.233,3.355,0.0658,0.0616682,0.06625,0.0617428,0.22065,0.0616858,0.2164,0.0626157
6251,419,SNL_18650_LFP_25C_40-60_0.5-0.5C_a,8361,1265.83,-0.551,0.548,3.233,3.355,0.0501,0.0469541,0.05055,0.0471109,0.1687,0.0471624,0.1652,0.0478009
6298,466,SNL_18650_LFP_25C_40-60_0.5-0.5C_a,9301,1778.05,-0.551,0.548,3.233,3.355,0.089,0.0834114,0.08975,0.083644,0.29875,0.0835197,0.29285,0.0847367
6345,513,SNL_18650_LFP_25C_40-60_0.5-0.5C_a,10241,1568.57,-0.551,0.548,3.233,3.355,0.07305,0.068463,0.07385,0.0688257,0.2453,0.068577,0.2405,0.0695891
6392,560,SNL_18650_LFP_25C_40-60_0.5-0.5C_a,11181,1226.89,-0.551,0.548,3.233,3.355,0.04805,0.0450328,0.0483,0.045014,0.16145,0.0451356,0.15815,0.045761
6439,607,SNL_18650_LFP_25C_40-60_0.5-0.5C_a,12121,1950.91,-0.55105,0.548,3.233,3.355,0.1019,0.0955014,0.10255,0.0955732,0.3415,0.0954711,0.3352,0.0969907
6486,654,SNL_18650_LFP_25C_40-60_0.5-0.5C_a,13061,1614.99,-0.551,0.548,3.233,3.355,0.0768,0.0719775,0.07755,0.072274,0.25785,0.0720855,0.25305,0.0732205
6533,701,SNL_18650_LFP_25C_40-60_0.5-0.5C_a,14001,1726.94,-0.5511,0.548,3.233,3.355,0.08495,0.0796157,0.0856,0.0797763,0.2847,0.0795918,0.2795,0.0808738
6580,748,SNL_18650_LFP_25C_40-60_0.5-0.5C_a,14941,2323.14,-0.552,0.547,3.233,3.355,0.1305,0.122306,0.13145,0.122507,0.4373,0.122253,0.4292,0.12419
6627,795,SNL_18650_LFP_25C_40-60_0.5-0.5C_a,15881,1173.76,-0.5511,0.547,3.233,3.355,0.043,0.0402999,0.04335,0.0404007,0.14525,0.0406067,0.1421,0.0411169
6674,842,SNL_18650_LFP_25C_40-60_0.5-0.5C_a,16821,1905.54,-0.55145,0.547,3.233,3.355,0.09905,0.0928304,0.0997,0.0929171,0.3322,0.0928711,0.32525,0.0941117
6721,889,SNL_18650_LFP_25C_40-60_0.5-0.5C_a,17761,1780.86,-0.55105,0.547,3.233,3.355,0.0877,0.0821931,0.0884,0.0823858,0.2945,0.0823316,0.2887,0.0835359
6768,936,SNL_18650_LFP_25C_40-60_0.5-0.5C_a,18701,1418.21,-0.55105,0.547,3.233,3.355,0.0622,0.0582943,0.0626,0.0583411,0.20915,0.0584708,0.2045,0.0591725
6815,23,SNL_18650_LFP_25C_40-60_0.5-0.5C_b,441,3110.43,-0.551,0.54835,3.233,3.355,0.19095,0.179464,0.1923,0.179888,0.63885,0.17915,0.62705,0.18207
6862,70,SNL_18650_LFP_25C_40-60_0.5-0.5C_b,1381,2499.96,-0.5507,0.549,3.233,3.355,0.14405,0.135385,0.1448,0.135454,0.4823,0.13525,0.47225,0.137123
6909,117,SNL_18650_LFP_25C_40-60_0.5-0.5C_b,2321,2531.84,-0.551,0.549,3.233,3.355,0.14695,0.138111,0.1478,0.13826,0.49225,0.13804,0.48215,0.139997
6956,164,SNL_18650_LFP_25C_40-60_0.5-0.5C_b,3261,2492.02,-0.551,0.54835,3.233,3.355,0.14335,0.134727,0.14425,0.134939,0.4804,0.134717,0.4707,0.136672
7003,211,SNL_18650_LFP_25C_40-60_0.5-0.5C_b,4201,2198.52,-0.551,0.54815,3.233,3.355,0.12115,0.113863,0.1218,0.113938,0.40625,0.113923,0.3978,0.115505
7050,258,SNL_18650_LFP_25C_40-60_0.5-0.5C_b,5141,2393.52,-0.551,0.548,3.233,3.355,0.1358,0.127632,0.1368,0.12797,0.4555,0.127734,0.44645,0.129631
7097,305,SNL_18650_LFP_25C_40-60_0.5-0.5C_b,6081,2185.24,-0.551,0.548,3.233,3.355,0.1215,0.114192,0.12215,0.114266,0.40705,0.114148,0.39895,0.115839
7144,352,SNL_18650_LFP_25C_40-60_0.5-0.5C_b,7021,2006.02,-0.551,0.548,3.233,3.355,0.10655,0.100141,0.107,0.100094,0.3565,0.099972,0.3494,0.101452
7191,399,SNL_18650_LFP_25C_40-60_0.5-0.5C_b,7961,1954.55,-0.551,0.548,3.233,3.35515,0.1002,0.0941729,0.10055,0.0940599,0.33565,0.0941251,0.3287,0.0954413
7238,446,SNL_18650_LFP_25C_40-60_0.5-0.5C_b,8901,1975.65,-0.551,0.548,3.233,3.355,0.10475,0.0984492,0.1055,0.0986904,0.35135,0.0985278,0.3444,0.1
7285,493,SNL_18650_LFP_25C_40-60_0.5-0.5C_b,9841,2130.92,-0.55105,0.548,3.233,3.355,0.116,0.109023,0.11695,0.109401,0.38865,0.108988,0.38135,0.110729
7332,540,SNL_18650_LFP_25C_40-60_0.5-0.5C_b,10781,2029.66,-0.551,0.548,3.233,3.355,0.10795,0.101457,0.1088,0.101777,0.36175,0.101444,0.35495,0.103063
7379,587,SNL_18650_LFP_25C_40-60_0.5-0.5C_b,11721,1816.93,-0.55105,0.548,3.233,3.355,0.09255,0.0869831,0.09315,0.0871375,0.31025,0.0870022,0.3045,0.0884146
7426,634,SNL_18650_LFP_25C_40-60_0.5-0.5C_b,12661,1692.2,-0.5511,0.548,3.233,3.355,0.08265,0.0776786,0.08315,0.077783,0.2772,0.0777342,0.27195,0.0789634
7473,681,SNL_18650_LFP_25C_40-60_0.5-0.5C_b,13601,2219.06,-0.553,0.547,3.233,3.355,0.1229,0.115508,0.12385,0.115856,0.41205,0.11555,0.4044,0.117422
7520,728,SNL_18650_LFP_25C_40-60_0.5-0.5C_b,14541,1355.87,-0.5521,0.548,3.233,3.355,0.0577,0.0542293,0.05795,0.0542095,0.19355,0.0542765,0.18965,0.0550668
7567,775,SNL_18650_LFP_25C_40-60_0.5-0.5C_b,15481,1774.91,-0.5521,0.548,3.233,3.355,0.08905,0.0836936,0.0895,0.0837231,0.2985,0.0837072,0.2923,0.0848722
7614,822,SNL_18650_LFP_25C_40-60_0.5-0.5C_b,16421,2032.33,-0.5522,0.548,3.233,3.355,0.1084,0.10188,0.1091,0.102058,0.3635,0.101935,0.35615,0.103412
7661,869,SNL_18650_LFP_25C_40-60_0.5-0.5C_b,17361,1463.36,-0.552,0.548,3.233,3.355,0.0655,0.0615602,0.06585,0.0615996,0.22,0.0616938,0.2153,0.0625145
7708,6,SNL_18650_LFP_25C_40-60_0.5-3C_a,101,2280.91,-3.29985,0.549,3.04885,3.353,0.22,0.2058,0.22,0.206186,0.733,0.204691,0.681,0.198196
7755,53,SNL_18650_LFP_25C_40-60_0.5-3C_a,1041,2281.08,-3.3,0.549,3.0415,3.356,0.22,0.2058,0.22,0.206186,0.734,0.204971,0.6789,0.197584
7802,100,SNL_18650_LFP_25C_40-60_0.5-3C_a,1981,2280.4,-3.3,0.54905,2.9866,3.356,0.22,0.2058,0.22,0.206186,0.732,0.204412,0.671,0.195285
7849,147,SNL_18650_LFP_25C_40-60_0.5-3C_a,2921,2281.37,-3.30005,0.549,3.00715,3.358,0.22,0.2058,0.22,0.206186,0.734,0.204971,0.67325,0.19594
7896,194,SNL_18650_LFP_25C_40-60_0.5-3C_a,3861,2281.25,-3.3002,0.549,2.9781,3.36395,0.22,0.2058,0.22,0.206186,0.735,0.20525,0.667,0.194121
7943,241,SNL_18650_LFP_25C_40-60_0.5-3C_a,4801,2281.5,-3.3001,0.549,2.981,3.3621,0.22,0.2058,0.22,0.206186,0.734,0.204971,0.669,0.194703
7990,288,SNL_18650_LFP_25C_40-60_0.5-3C_a,5741,2281.91,-3.3003,0.549,3.009,3.3625,0.22,0.2058,0.22,0.206186,0.735,0.20525,0.673,0.195867
8037,335,SNL_18650_LFP_25C_40-60_0.5-3C_a,6681,2281.57,-3.3,0.549,2.9803,3.36375,0.22,0.2058,0.22,0.206186,0.734,0.204971,0.6687,0.194616
8084,382,SNL_18650_LFP_25C_40-60_0.5-3C_a,7621,2282.02,-3.30005,0.549,3.0213,3.357,0.22,0.2058,0.22,0.206186,0.734,0.204971,0.676,0.19674
8131,429,SNL_18650_LFP_25C_40-60_0.5-3C_a,8561,2282.05,-3.3,0.549,3.0347,3.357,0.22,0.2058,0.22,0.206186,0.733,0.204691,0.68,0.197905
8178,476,SNL_18650_LFP_25C_40-60_0.5-3C_a,9501,2282.28,-3.30055,0.54895,3.0272,3.3608,0.22,0.2058,0.22,0.206186,0.734,0.204971,0.67665,0.19693
8225,523,SNL_18650_LFP_25C_40-60_0.5-3C_a,10441,2282.43,-3.30095,0.54895,3.02395,3.367,0.22,0.2058,0.22,0.206186,0.735,0.20525,0.676,0.19674
8272,570,SNL_18650_LFP_25C_40-60_0.5-3C_a,11381,2282.6,-3.30105,0.54865,3.012,3.3769,0.22,0.2058,0.22,0.206186,0.736,0.205529,0.672,0.195576
8319,617,SNL_18650_LFP_25C_40-60_0.5-3C_a,12321,2287.68,-3.303,0.547,2.895,3.35,0.22,0.2058,0.22,0.206186,0.725,0.202457,0.666,0.19383
8366,31,SNL_18650_LFP_25C_40-60_0.5-3C_b,601,2281.93,-3.3,0.549,3.0492,3.35625,0.22,0.209324,0.22,0.208927,0.734,0.208464,0.6803,0.200678
8413,78,SNL_18650_LFP_25C_40-60_0.5-3C_b,1541,2281.38,-3.3,0.549,3.03815,3.3563,0.22,0.209324,0.22,0.208927,0.734,0.208464,0.678,0.2
8460,125,SNL_18650_LFP_25C_40-60_0.5-3C_b,2481,2281.56,-3.3,0.549,3.05785,3.361,0.22,0.209324,0.22,0.208927,0.7346,0.208634,0.68115,0.200929
8507,172,SNL_18650_LFP_25C_40-60_0.5-3C_b,3421,2281.82,-3.30015,0.549,3.0541,3.3639,0.22,0.209324,0.22,0.208927,0.735,0.208748,0.67995,0.200575
8554,219,SNL_18650_LFP_25C_40-60_0.5-3C_b,4361,2281.99,-3.3003,0.549,3.0454,3.3639,0.22,0.209324,0.22,0.208927,0.735,0.208748,0.6787,0.200206
8601,266,SNL_18650_LFP_25C_40-60_0.5-3C_b,5301,2282.35,-3.3006,0.549,3.03885,3.3636,0.22,0.209324,0.22,0.208927,0.73505,0.208762,0.67715,0.199749
8648,313,SNL_18650_LFP_25C_40-60_0.5-3C_b,6241,2282.11,-3.3003,0.549,3.0238,3.3631,0.22,0.209324,0.22,0.208927,0.735,0.208748,0.675,0.199115
8695,360,SNL_18650_LFP_25C_40-60_0.5-3C_b,7181,2282.71,-3.30015,0.549,2.98355,3.36685,0.22,0.209324,0.22,0.208927,0.736,0.209032,0.667,0.196755
8742,407,SNL_18650_LFP_25C_40-60_0.5-3C_b,8121,2282.92,-3.3004,0.54895,3.00795,3.3602,0.22,0.209324,0.22,0.208927,0.734,0.208464,0.673,0.198525
8789,454,SNL_18650_LFP_25C_40-60_0.5-3C_b,9061,2283.09,-3.30075,0.54895,3.0368,3.40095,0.22,0.209324,0.22,0.208927,0.738,0.2096,0.67515,0.199159
8836,501,SNL_18650_LFP_25C_40-60_0.5-3C_b,10001,2283,-3.30095,0.54895,3.0094,3.38855,0.22,0.209324,0.22,0.208927,0.73735,0.209415,0.6698,0.197581
8883,548,SNL_18650_LFP_25C_40-60_0.5-3C_b,10941,2283.09,-3.301,0.5489,3.0448,3.3809,0.22,0.209324,0.22,0.208927,0.736,0.209032,0.67755,0.199867
8930,13,SNL_18650_LFP_35C_0-100_0.5-1C_a,241,11121.5,-1.0993,0.54965,1.9952,3.6,1.0455,0.969852,1.0449,0.970195,3.4982,0.96769,3.317,0.957564
8977,60,SNL_18650_LFP_35C_0-100_0.5-1C_a,1181,10476.5,-1.0992,0.55,1.9959,3.60005,0.983,0.911874,0.983,0.912721,3.293,0.910927,3.1069,0.896911
9024,107,SNL_18650_LFP_35C_0-100_0.5-1C_a,2121,10215.8,-1.0994,0.5492,1.996,3.6,0.95875,0.889378,0.95825,0.88974,3.20725,0.887206,3.0326,0.875462
9071,154,SNL_18650_LFP_35C_0-100_0.5-1C_a,3061,9813.9,-1.1,0.5494,1.9969,3.6,0.91655,0.850232,0.916,0.850511,3.07385,0.850304,2.88015,0.831452
9118,42,SNL_18650_LFP_35C_0-100_0.5-1C_b,821,10446.9,-1.09935,0.5491,1.99515,3.60005,0.97985,0.936759,0.9794,0.937225,3.27735,0.934517,3.10545,0.923966
9165,89,SNL_18650_LFP_35C_0-100_0.5-1C_b,1761,9967.11,-1.1,0.549,1.99585,3.601,0.93285,0.891826,0.9326,0.89244,3.1248,0.891018,2.94205,0.87535
9212,136,SNL_18650_LFP_35C_0-100_0.5-1C_b,2701,9689.45,-1.0995,0.5492,1.99605,3.6,0.9074,0.867495,0.9071,0.868038,3.04145,0.867251,2.85745,0.850179
9259,15,SNL_18650_LFP_35C_0-100_0.5-1C_c,281,10638.3,-1.1,0.55,1.9935,3.6,0.99805,0.942446,0.998,0.944182,3.3378,0.94049,3.16545,0.930741
9306,62,SNL_18650_LFP_35C_0-100_0.5-1C_c,1221,10217.1,-1.1,0.5496,1.9956,3.6,0.9598,0.906327,0.95955,0.907805,3.20835,0.904015,3.038,0.893267
9353,109,SNL_18650_LFP_35C_0-100_0.5-1C_c,2161,9954.8,-1.1,0.54945,1.99585,3.6,0.9363,0.884136,0.936,0.885525,3.134,0.883066,2.95295,0.868259
9400,156,SNL_18650_LFP_35C_0-100_0.5-1C_c,3101,9676.6,-1.1,0.54975,1.99605,3.6,0.9074,0.856846,0.90675,0.857852,3.04155,0.857016,2.8506,0.838165
9447,35,SNL_18650_LFP_35C_0-100_0.5-1C_d,681,10533.5,-1.1,0.55,1.99455,3.6,0.99805,0.940669,0.9951,0.93966,3.33505,0.938129,3.15615,0.927189
9494,82,SNL_18650_LFP_35C_0-100_0.5-1C_d,1621,10249.4,-1.1,0.55,1.99575,3.6,0.9675,0.911876,0.9668,0.912937,3.2326,0.909311,3.0639,0.900088
9541,129,SNL_18650_LFP_35C_0-100_0.5-1C_d,2561,9955.49,-0.93495,0.52245,2.0304,3.55415,0.8906,0.839397,0.8908,0.841171,2.98405,0.839395,2.8185,0.827996
9588,176,SNL_18650_LFP_35C_0-100_0.5-1C_d,3501,9527.16,-1.1,0.55,1.99615,3.6,0.896,0.844486,0.895,0.845137,2.99205,0.841646,2.83045,0.831507
9635,32,SNL_18650_LFP_35C_0-100_0.5-2C_a,621,8981.82,-2.1997,0.55,1.98875,3.6,1.00715,0.944794,1.0069,0.945446,3.3664,0.942177,3.10605,0.907671
9682,79,SNL_18650_LFP_35C_0-100_0.5-2C_a,1561,8766.88,-2.2,0.55,1.99175,3.6,0.9802,0.919512,0.9802,0.920376,3.29095,0.921061,2.9669,0.867008
9729,126,SNL_18650_LFP_35C_0-100_0.5-2C_a,2501,8404.16,-2.2,0.5491,1.99175,3.6,0.9381,0.880019,0.9381,0.880845,3.1358,0.877638,2.88385,0.842738
9776,173,SNL_18650_LFP_35C_0-100_0.5-2C_a,3441,8124.25,-2.1999,0.54995,1.9931,3.6,0.90345,0.847514,0.9034,0.848263,3.0344,0.849258,2.71445,0.793235
9823,26,SNL_18650_LFP_35C_0-100_0.5-2C_b,501,8821.13,-2.11745,0.55,1.98815,3.6,0.98265,0.943948,0.98275,0.944952,3.2868,0.942046,3.03945,0.908926
9870,73,SNL_18650_LFP_35C_0-100_0.5-2C_b,1441,8494.92,-2.2,0.55,1.9907,3.6,0.94505,0.907829,0.94465,0.908317,3.1597,0.905618,2.90745,0.869453
9917,120,SNL_18650_LFP_35C_0-100_0.5-2C_b,2381,8135.22,-2.19985,0.54905,1.9907,3.6,0.9022,0.866667,0.9018,0.867115,3.01815,0.865047,2.76515,0.826899
9964,167,SNL_18650_LFP_35C_0-100_0.5-2C_b,3321,7748.2,-2.1993,0.549,1.99155,3.6,0.85515,0.82147,0.8548,0.821923,2.86775,0.82194,2.58895,0.774208
10011,6,SNL_18650_NCA_15C_0-100_0.5-1C_b,101,10224.6,-3.25,1.6249,2.499,4.2,2.65545,0.920433,2.6552,0.923548,10.42525,0.920552,8.68825,0.878577
10058,6,SNL_18650_NCA_15C_0-100_0.5-2C_a,101,8563.24,-6.501,1.625,2.499,4.2001,2.5341,0.886979,2.5349,0.889751,9.9847,0.888398,7.53835,0.77253
10105,6,SNL_18650_NCA_15C_0-100_0.5-2C_b,101,8641.97,-6.496,1.629,2.499,4.2,2.5489,0.881667,2.5488,0.883773,10.0387,0.885013,7.62185,0.767172
10152,13,SNL_18650_NCA_25C_0-100_0.5-0.5C_a,241,13369.8,-1.625,1.62485,2.499,4.2,2.6808,0.848623,2.67865,0.853617,10.4619,0.857603,9.2685,0.838702
10199,33,SNL_18650_NCA_25C_0-100_0.5-0.5C_b,641,3538.6,-1.62405,1.62415,2.499,4.2,0.40385,0.127882,0.39765,0.12656,1.6758,0.137473,1.2569,0.113603
10246,33,SNL_18650_NCA_25C_0-100_0.5-1C_a,641,9402.78,-3.0064,1.62405,2.499,4.2,2.40315,0.767534,2.4086,0.775467,9.48095,0.782838,7.9177,0.723672
10293,19,SNL_18650_NCA_25C_0-100_0.5-1C_c,361,9800.9,-3.25,1.625,2.499,4.2,2.50915,0.795293,2.51055,0.800813,9.83435,0.806425,8.24265,0.747633
10340,5,SNL_18650_NCA_25C_0-100_0.5-2C_a,81,10134.6,-6.503,1.6204,2.49725,4.2,2.8819,0.927551,2.8823,0.932783,11.1841,0.930458,9.1415,0.840752
10387,11,SNL_18650_NCA_25C_0-100_0.5-2C_b,201,8969.84,-6.50045,1.6247,2.499,4.2,2.65685,0.85622,2.6589,0.86188,10.3693,0.863097,8.38005,0.771644
10434,17,SNL_18650_NCA_25C_20-80_0.5-0.5C_a,321,8568.23,-1.625,1.62405,2.69995,3.98,1.7982,0.571583,1.79675,0.575144,6.71705,0.553208,6.04435,0.549087
10481,5,SNL_18650_NCA_25C_20-80_0.5-0.5C_b,81,9340.6,-1.625,1.625,2.699,3.98,1.97325,0.62504,1.97215,0.628474,7.35225,0.60294,6.6831,0.604587
10528,52,SNL_18650_NCA_25C_20-80_0.5-0.5C_b,1021,7298.71,-1.54375,1.54345,2.6687,4.0228,1.9163,0.607,1.9171,0.610931,7.3465,0.602468,6.52445,0.590234
10575,33,SNL_18650_NCA_25C_20-80_0.5-0.5C_c,641,8030.88,-1.625,1.624,2.699,3.98,1.6576,0.526557,1.65985,0.528783,6.2175,0.511055,5.5537,0.502734
10622,14,SNL_18650_NCA_25C_20-80_0.5-0.5C_d,261,8760.82,-1.6243,1.624,2.699,3.98,1.84105,0.594462,1.8412,0.597986,6.86735,0.573522,6.2202,0.573449
10669,61,SNL_18650_NCA_25C_20-80_0.5-0.5C_d,1201,6867.71,-1.625,1.62415,2.699,3.98,1.414,0.456571,1.41425,0.459321,5.33215,0.445311,4.68865,0.432253
10716,30,SNL_18650_NCA_25C_40-60_0.5-0.5C_a,581,3480.5,-1.624,1.625,3.3454,3.7947,0.65,0.210356,0.65,0.21097,2.4134,0.202195,2.23945,0.206553
10763,77,SNL_18650_NCA_25C_40-60_0.5-0.5C_a,1521,3480.49,-1.624,1.625,3.3725,3.85285,0.65,0.210356,0.65,0.21097,2.4437,0.204734,2.2546,0.207951
10810,124,SNL_18650_NCA_25C_40-60_0.5-0.5C_a,2461,3480.0,-1.624,1.625,3.3744,3.85385,0.65,0.210356,0.65,0.21097,2.44315,0.204687,2.2575,0.208218
10857,171,SNL_18650_NCA_25C_40-60_0.5-0.5C_a,3401,3480.11,-1.62415,1.625,3.30375,3.82705,0.65,0.210356,0.65,0.21097,2.4287,0.203477,2.22415,0.205142
10904,218,SNL_18650_NCA_25C_40-60_0.5-0.5C_a,4341,3480.09,-1.6246,1.625,3.29835,3.8382,0.65,0.210356,0.65,0.21097,2.43455,0.203967,2.2221,0.204953
10951,265,SNL_18650_NCA_25C_40-60_0.5-0.5C_a,5281,3480.13,-1.62405,1.625,3.2485,3.82735,0.65,0.210356,0.65,0.21097,2.42585,0.203238,2.20355,0.203242
10998,312,SNL_18650_NCA_25C_40-60_0.5-0.5C_a,6221,3480.01,-1.6247,1.625,3.20075,3.81765,0.65,0.210356,0.65,0.21097,2.4183,0.202606,2.18695,0.201711
11045,359,SNL_18650_NCA_25C_40-60_0.5-0.5C_a,7161,3479.48,-1.625,1.625,3.12125,3.82185,0.65,0.210356,0.65,0.21097,2.42195,0.202911,2.14715,0.19804
11092,11,SNL_18650_NCA_25C_40-60_0.5-0.5C_b,201,3480.64,-1.624,1.625,3.37195,3.7954,0.65,0.207801,0.65,0.209813,2.4149,0.199942,2.2501,0.205865
11139,58,SNL_18650_NCA_25C_40-60_0.5-0.5C_b,1141,3480.27,-1.6247,1.625,3.34145,3.80235,0.65,0.207801,0.65,0.209813,2.418,0.200199,2.2378,0.204739
11186,105,SNL_18650_NCA_25C_40-60_0.5-0.5C_b,2081,3480.13,-1.625,1.625,3.3189,3.7989,0.65,0.207801,0.65,0.209813,2.4154,0.199983,2.2294,0.203971
11233,152,SNL_18650_NCA_25C_40-60_0.5-0.5C_b,3021,3479.96,-1.6248,1.625,3.30545,3.856,0.65,0.207801,0.65,0.209813,2.44505,0.202438,2.22475,0.203545
11280,199,SNL_18650_NCA_25C_40-60_0.5-0.5C_b,3961,3480.34,-1.625,1.625,3.28405,3.824,0.65,0.207801,0.65,0.209813,2.4275,0.200985,2.21775,0.202905
11327,246,SNL_18650_NCA_25C_40-60_0.5-0.5C_b,4901,3480.67,-1.6243,1.625,3.25145,3.83685,0.65,0.207801,0.65,0.209813,2.43235,0.201387,2.20475,0.201715
11374,293,SNL_18650_NCA_25C_40-60_0.5-0.5C_b,5841,3480.52,-1.62415,1.625,3.19855,3.8314,0.65,0.207801,0.65,0.209813,2.42735,0.200973,2.18475,0.199886
11421,8,SNL_18650_NCA_35C_0-100_0.5-1C_b,141,11601.3,-3.25,1.62465,2.499,4.2,2.92335,0.923649,2.9227,0.926665,11.418,0.928444,9.5368,0.873413
11468,4,SNL_18650_NCA_35C_0-100_0.5-1C_d,61,11660.3,-3.24965,1.6248,2.499,4.2,3.0714,0.95474,3.06895,0.958149,11.9019,0.956049,10.21465,0.914554
11515,17,SNL_18650_NCA_35C_0-100_0.5-2C_a,321,9437.26,-6.49995,1.62445,2.49905,4.2,2.41735,0.760651,2.4177,0.764128,9.57285,0.775192,7.20835,0.657876
11562,30,SNL_18650_NCA_35C_0-100_0.5-2C_b,581,9428.77,-6.4999,1.6248,2.499,4.2,2.2322,0.712026,2.22985,0.715613,8.8748,0.726311,6.56695,0.611391
11609,9,SNL_18650_NMC_15C_0-100_0.5-1C_b,161,9052.46,-3.0,1.49995,1.9966,4.2,2.1194,0.835067,2.11955,0.835785,8.3227,0.836873,7.2639,0.841703
11656,8,SNL_18650_NMC_15C_0-100_0.5-2C_b,141,7901.84,-6.00085,1.4994,1.9967,4.2,2.1629,0.793725,2.16045,0.793991,8.48115,0.803367,6.96305,0.729803
11703,5,SNL_18650_NMC_25C_0-100_0.5-0.5C_b,81,14348.1,-1.5,1.5,1.99875,4.2,2.68115,0.897606,2.6779,0.900437,10.3456,0.907827,9.74005,0.91037
11750,17,SNL_18650_NMC_25C_0-100_0.5-1C_a,321,10458,-2.999,1.499,1.99675,4.2,2.477,0.836824,2.4755,0.838584,9.61385,0.84943,8.8044,0.830525
11797,37,SNL_18650_NMC_25C_0-100_0.5-1C_b,721,9856.33,-3.001,1.499,1.997,4.201,2.3129,0.796179,2.31465,0.798706,8.98815,0.810181,8.23265,0.788719
11844,22,SNL_18650_NMC_25C_0-100_0.5-1C_d,421,9939.38,-2.99985,1.499,1.9962,4.2,2.35945,0.8009,2.36175,0.803043,9.1898,0.817089,8.373,0.790726
11891,7,SNL_18650_NMC_25C_0-100_0.5-2C_b,121,9324.63,-5.02025,1.4288,2.03515,4.129,2.47705,0.892309,2.4801,0.89502,9.5877,0.888408,8.4832,0.882563
11938,54,SNL_18650_NMC_25C_0-100_0.5-2C_b,1061,8363.88,-4.35,1.425,2.03305,4.12865,2.27275,0.818714,2.26985,0.819145,8.83415,0.818583,7.93535,0.825567
11985,34,SNL_18650_NMC_25C_0-100_0.5-3C_a,661,8160.7,-9.001,1.49995,1.9932,4.2,2.36215,0.802906,2.36075,0.806267,9.1637,0.814406,7.76725,0.738613
12032,14,SNL_18650_NMC_25C_0-100_0.5-3C_c,261,14620.3,-6.2986,1.4247,2.0332,4.12925,2.52155,0.853894,2.5249,0.85677,9.72065,0.860844,8.8279,0.834632
12079,25,SNL_18650_NMC_25C_0-100_0.5-3C_d,481,8466.3,-9.00095,1.499,1.99225,4.2,2.4281,0.818369,2.4296,0.821366,9.40215,0.829553,8.09695,0.761779
12126,25,SNL_18650_NMC_25C_20-80_0.5-0.5C_a,481,8144.6,-1.5,1.5,3.179,4.02,1.5685,0.529362,1.56735,0.530765,5.90405,0.520685,5.5843,0.52697
12173,72,SNL_18650_NMC_25C_20-80_0.5-0.5C_a,1421,7344.66,-1.5002,1.5,3.179,4.02,1.4109,0.476173,1.4102,0.477548,5.3362,0.470606,4.9803,0.469973
12220,119,SNL_18650_NMC_25C_20-80_0.5-0.5C_a,2361,7484.17,-1.501,1.5,3.179,4.02,1.43485,0.484256,1.43455,0.485794,5.41715,0.477745,5.09675,0.480962
12267,166,SNL_18650_NMC_25C_20-80_0.5-0.5C_a,3301,7441.46,-1.501,1.5,3.179,4.02,1.4246,0.480796,1.42455,0.482408,5.3749,0.474019,5.0791,0.479296
12314,213,SNL_18650_NMC_25C_20-80_0.5-0.5C_a,4241,6936.53,-1.4982,1.4963,3.179,4.02,1.3141,0.443503,1.3159,0.445615,4.97775,0.438994,4.6442,0.438256
12361,41,SNL_18650_NMC_25C_20-80_0.5-0.5C_b,801,8386.53,-1.5,1.499,3.0965,4.038,1.80095,0.605158,1.788,0.603035,6.78185,0.597889,6.42605,0.601577
12408,88,SNL_18650_NMC_25C_20-80_0.5-0.5C_b,1741,7490.25,-1.4991,1.499,3.179,4.02,1.43615,0.482577,1.4349,0.483946,5.4244,0.478216,5.08375,0.475917
12455,135,SNL_18650_NMC_25C_20-80_0.5-0.5C_b,2681,7763.25,-1.4242,1.42405,2.77825,4.0183,1.80415,0.606233,1.8043,0.608533,6.89535,0.607895,6.48925,0.607494
12502,182,SNL_18650_NMC_25C_20-80_0.5-0.5C_b,3621,6788.4,-1.27415,1.27415,2.66075,3.58025,1.25075,0.420279,1.2587,0.424519,4.7868,0.422005,4.4503,0.416617
12549,46,SNL_18650_NMC_25C_20-80_0.5-0.5C_c,901,7682.11,-1.5,1.4991,3.179,4.02,1.4744,0.49794,1.47475,0.499407,5.56405,0.491524,5.2438,0.494465
12596,20,SNL_18650_NMC_25C_20-80_0.5-0.5C_d,381,9241.96,-1.4992,1.4991,3.4542,4.1972,1.8,0.604839,1.8,0.606673,7.03485,0.620193,6.73055,0.629553
12643,67,SNL_18650_NMC_25C_20-80_0.5-0.5C_d,1321,7897.55,-1.49965,1.49945,3.179,4.02,1.5201,0.510786,1.52105,0.512656,5.72225,0.504474,5.455,0.510242
12690,114,SNL_18650_NMC_25C_20-80_0.5-0.5C_d,2261,7377.63,-1.49915,1.4991,3.179,4.02,1.41075,0.474042,1.4116,0.475767,5.32895,0.469801,5.02065,0.469615
12737,161,SNL_18650_NMC_25C_20-80_0.5-0.5C_d,3201,7274.4,-1.499,1.499,3.179,4.02,1.39,0.46707,1.39085,0.468773,5.2503,0.462867,4.95005,0.463011
12784,39,SNL_18650_NMC_25C_20-80_0.5-3C_a,761,4668.76,-9.0011,1.49995,2.949,4.02,1.45255,0.488581,1.45365,0.49027,5.4869,0.484238,4.73215,0.442961
12831,86,SNL_18650_NMC_25C_20-80_0.5-3C_a,1701,4633.78,-9.00035,1.5,2.949,4.02,1.4394,0.484157,1.4406,0.485868,5.4297,0.47919,4.7205,0.44187
12878,133,SNL_18650_NMC_25C_20-80_0.5-3C_a,2641,4555.13,-8.9997,1.49925,2.949,4.02,1.41245,0.475092,1.41335,0.476678,5.32815,0.470228,4.62045,0.432505
12925,180,SNL_18650_NMC_25C_20-80_0.5-3C_a,3581,4063.17,-9,1.49995,2.949,4.02,1.23625,0.415826,1.23655,0.417049,4.6962,0.414456,3.93535,0.368375
12972,45,SNL_18650_NMC_25C_20-80_0.5-3C_b,881,4851.04,-9.001,1.49905,2.839,4.02,1.51825,0.89997,1.51895,0.899852,5.71,0.90434,4.9126,0.884197
13019,34,SNL_18650_NMC_25C_40-60_0.5-0.5C_a,661,3479.66,-1.5,1.5,3.41845,3.8675,0.6,0.20114,0.6,0.201952,2.2642,0.199016,2.10695,0.197022
13066,81,SNL_18650_NMC_25C_40-60_0.5-0.5C_a,1601,3479.57,-1.5,1.5,3.44455,3.8087,0.6,0.20114,0.6,0.201952,2.23,0.196009,2.128,0.19899
13113,128,SNL_18650_NMC_25C_40-60_0.5-0.5C_a,2541,3479.48,-1.5,1.5,3.44365,3.81485,0.6,0.20114,0.6,0.201952,2.2328,0.196256,2.127,0.198897
13160,175,SNL_18650_NMC_25C_40-60_0.5-0.5C_a,3481,3479.44,-1.5,1.5,3.4221,3.81265,0.6,0.20114,0.6,0.201952,2.2298,0.195992,2.12,0.198242
13207,222,SNL_18650_NMC_25C_40-60_0.5-0.5C_a,4421,3479.18,-1.5,1.5,3.38965,3.7839,0.6,0.20114,0.6,0.201952,2.21205,0.194432,2.10305,0.196657
13254,269,SNL_18650_NMC_25C_40-60_0.5-0.5C_a,5361,3479.41,-1.5,1.5,3.40295,3.7892,0.6,0.20114,0.6,0.201952,2.2149,0.194682,2.111,0.1974
13301,316,SNL_18650_NMC_25C_40-60_0.5-0.5C_a,6301,3479.49,-1.5,1.5,3.35225,3.8309,0.6,0.20114,0.6,0.201952,2.23925,0.196823,2.0809,0.194586
13348,363,SNL_18650_NMC_25C_40-60_0.5-0.5C_a,7241,3479.38,-1.5,1.5,3.2479,3.7561,0.6,0.20114,0.6,0.201952,2.19185,0.192656,2.0536,0.192033
13395,410,SNL_18650_NMC_25C_40-60_0.5-0.5C_a,8181,3479.18,-1.5,1.5,3.22665,3.78035,0.6,0.20114,0.6,0.201952,2.2064,0.193935,2.04005,0.190766
13442,457,SNL_18650_NMC_25C_40-60_0.5-0.5C_a,9121,3479.22,-1.5,1.5,3.25685,3.78365,0.6,0.20114,0.6,0.201952,2.2098,0.194234,2.04445,0.191177
13489,504,SNL_18650_NMC_25C_40-60_0.5-0.5C_a,10061,3479.41,-1.5,1.5,2.91505,3.7726,0.6,0.20114,0.6,0.201952,2.18165,0.19176,1.9885,0.185945
13536,551,SNL_18650_NMC_25C_40-60_0.5-0.5C_a,11001,3479.57,-1.5,1.5,2.88925,3.76585,0.6,0.20114,0.6,0.201952,2.1756,0.191228,1.98205,0.185342
13583,40,SNL_18650_NMC_25C_40-60_0.5-0.5C_b,781,3480.36,-1.4992,1.5,3.52105,3.8736,0.6,0.201816,0.6,0.202361,2.257,0.199258,2.16575,0.202691
13630,87,SNL_18650_NMC_25C_40-60_0.5-0.5C_b,1721,3480.06,-1.5,1.5,3.507,3.85785,0.6,0.201816,0.6,0.202361,2.24885,0.198539,2.1582,0.201984
13677,134,SNL_18650_NMC_25C_40-60_0.5-0.5C_b,2661,3479.96,-1.49995,1.5,3.48635,3.84015,0.6,0.201816,0.6,0.202361,2.2408,0.197828,2.1479,0.20102
13724,181,SNL_18650_NMC_25C_40-60_0.5-0.5C_b,3601,3479.83,-1.5,1.5,3.4641,3.82075,0.6,0.201816,0.6,0.202361,2.2318,0.197034,2.13915,0.200201
13771,228,SNL_18650_NMC_25C_40-60_0.5-0.5C_b,4541,3480.27,-1.4243,1.425,3.0161,3.92195,1.14105,0.383804,1.1804,0.398111,4.37885,0.386585,4.2889,0.401394
13818,275,SNL_18650_NMC_25C_40-60_0.5-0.5C_b,5481,3480.61,-1.499,1.49995,3.4926,3.8728,0.6,0.201816,0.6,0.202361,2.25485,0.199069,2.1531,0.201507
13865,322,SNL_18650_NMC_25C_40-60_0.5-0.5C_b,6421,3480.71,-1.499,1.5,3.4792,3.8746,0.6,0.201816,0.6,0.202361,2.2563,0.199197,2.1459,0.200833
13912,369,SNL_18650_NMC_25C_40-60_0.5-0.5C_b,7361,3480.54,-1.499,1.5,3.38985,3.8407,0.6,0.201816,0.6,0.202361,2.241,0.197846,2.103,0.196818
13959,416,SNL_18650_NMC_25C_40-60_0.5-0.5C_b,8301,3480.06,-1.4991,1.5,3.44905,3.8335,0.6,0.201816,0.6,0.202361,2.2351,0.197325,2.1359,0.199897
14006,7,SNL_18650_NMC_25C_40-60_0.5-3C_a,121,2280.58,-8.9982,1.4991,3.2236,3.82055,0.6,0.203735,0.6,0.204221,2.23105,0.198704,1.9975,0.188639
14053,54,SNL_18650_NMC_25C_40-60_0.5-3C_a,1061,2280.4,-8.999,1.49935,3.1816,3.805,0.6,0.203735,0.6,0.204221,2.224,0.198076,1.9736,0.186382
14100,101,SNL_18650_NMC_25C_40-60_0.5-3C_a,2001,2280.42,-8.99945,1.4998,3.14525,3.82205,0.6,0.203735,0.6,0.204221,2.23135,0.198731,1.95135,0.184281
14147,148,SNL_18650_NMC_25C_40-60_0.5-3C_a,2941,2280.29,-8.99915,1.5,3.16195,3.80775,0.6,0.203735,0.6,0.204221,2.2236,0.198041,1.965,0.18557
14194,195,SNL_18650_NMC_25C_40-60_0.5-3C_a,3881,2280.31,-8.999,1.49975,3.06455,3.7759,0.6,0.203735,0.6,0.204221,2.207,0.196562,1.916,0.180942
14241,242,SNL_18650_NMC_25C_40-60_0.5-3C_a,4821,2280.16,-6.2993,1.425,2.73805,3.8713,1.22635,0.416418,1.229,0.418312,4.67315,0.416205,4.30475,0.40653
14288,289,SNL_18650_NMC_25C_40-60_0.5-3C_a,5761,2280.35,-8.99905,1.4999,3.0773,3.78615,0.6,0.203735,0.6,0.204221,2.21,0.196829,1.92375,0.181674
14335,336,SNL_18650_NMC_25C_40-60_0.5-3C_a,6701,2280.43,-8.9981,1.4994,3.10495,3.80225,0.6,0.203735,0.6,0.204221,2.218,0.197542,1.935,0.182737
14382,383,SNL_18650_NMC_25C_40-60_0.5-3C_a,7641,2280.45,-8.998,1.49915,3.0868,3.7974,0.6,0.203735,0.6,0.204221,2.21495,0.19727,1.92745,0.182024
14429,430,SNL_18650_NMC_25C_40-60_0.5-3C_a,8581,2280.34,-8.9981,1.4992,3.0306,3.80655,0.6,0.203735,0.6,0.204221,2.21915,0.197644,1.89295,0.178766
14476,477,SNL_18650_NMC_25C_40-60_0.5-3C_a,9521,2280.29,-8.9988,1.5,3.0868,3.7931,0.6,0.203735,0.6,0.204221,2.211,0.196918,1.93115,0.182373
14523,524,SNL_18650_NMC_25C_40-60_0.5-3C_a,10461,2280.63,-8.99795,1.499,2.5663,3.7486,0.6,0.203735,0.6,0.204221,2.1741,0.193632,1.71515,0.161975
14570,571,SNL_18650_NMC_25C_40-60_0.5-3C_a,11401,2280.78,-8.9971,1.499,2.61945,3.75675,0.6,0.203735,0.6,0.204221,2.1827,0.194398,1.7213,0.162555
14617,618,SNL_18650_NMC_25C_40-60_0.5-3C_a,12341,2280.85,-8.99705,1.499,2.6504,3.7629,0.6,0.203735,0.6,0.204221,2.18845,0.19491,1.72555,0.162957
14664,18,SNL_18650_NMC_25C_40-60_0.5-3C_b,341,2280.32,-8.99935,1.4991,3.21355,3.83345,0.6,0.202977,0.6,0.203597,2.23605,0.198478,1.9942,0.18776
14711,65,SNL_18650_NMC_25C_40-60_0.5-3C_b,1281,2280.27,-8.99925,1.49935,3.05105,3.747,0.6,0.202977,0.6,0.203597,2.19075,0.194457,1.9206,0.18083
14758,112,SNL_18650_NMC_25C_40-60_0.5-3C_b,2221,2280.22,-9.00045,1.4995,3.09555,3.8153,0.6,0.202977,0.6,0.203597,2.2283,0.19779,1.9281,0.181537
14805,159,SNL_18650_NMC_25C_40-60_0.5-3C_b,3161,2280.14,-9,1.4998,3.04935,3.8069,0.6,0.202977,0.6,0.203597,2.22395,0.197404,1.9038,0.179249
14852,206,SNL_18650_NMC_25C_40-60_0.5-3C_b,4101,2280.14,-9.00025,1.49975,2.97085,3.76215,0.6,0.202977,0.6,0.203597,2.197,0.195012,1.87655,0.176683
14899,253,SNL_18650_NMC_25C_40-60_0.5-3C_b,5041,2280.07,-9.0002,1.4999,3.00715,3.827,0.6,0.202977,0.6,0.203597,2.23265,0.198176,1.87825,0.176843
14946,300,SNL_18650_NMC_25C_40-60_0.5-3C_b,5981,2280.16,-9,1.4992,2.8411,3.75635,0.6,0.202977,0.6,0.203597,2.19165,0.194537,1.81595,0.170977
14993,347,SNL_18650_NMC_25C_40-60_0.5-3C_b,6921,2280.25,-8.99925,1.49905,2.94385,3.7517,0.6,0.202977,0.6,0.203597,2.1881,0.194222,1.8727,0.17632
15040,394,SNL_18650_NMC_25C_40-60_0.5-3C_b,7861,2280.3,-8.99905,1.499,2.82825,3.7421,0.6,0.202977,0.6,0.203597,2.1802,0.19352,1.8211,0.171462
15087,441,SNL_18650_NMC_25C_40-60_0.5-3C_b,8801,2280.28,-8.99945,1.4991,2.99925,3.78515,0.6,0.202977,0.6,0.203597,2.2068,0.195881,1.89025,0.177973
15134,488,SNL_18650_NMC_25C_40-60_0.5-3C_b,9741,2280.25,-8.99995,1.49955,2.85685,3.7755,0.6,0.202977,0.6,0.203597,2.20115,0.19538,1.8171,0.171086
15181,535,SNL_18650_NMC_25C_40-60_0.5-3C_b,10681,2280.75,-8.9971,1.499,2.62295,3.7735,0.6,0.202977,0.6,0.203597,2.1985,0.195145,1.69945,0.160008
15228,23,SNL_18650_NMC_35C_0-100_0.5-1C_a,441,10174.4,-2.9999,1.5,1.99675,4.2,2.45145,0.828753,2.45005,0.832501,9.53975,0.83807,8.5646,0.820443
15275,29,SNL_18650_NMC_35C_0-100_0.5-1C_b,561,10068.5,-3.0,1.5,1.99635,4.2,2.4118,0.819504,2.4109,0.823114,9.3942,0.827318,8.4497,0.816554
15322,35,SNL_18650_NMC_35C_0-100_0.5-1C_c,681,10038.4,-3.0,1.5,1.99675,4.2,2.38875,0.806193,2.3862,0.80943,9.2895,0.815655,8.41375,0.801615
15369,0,SNL_18650_NMC_35C_0-100_0.5-2C_a,0,29255.798,-1.5,1.582,1.999,4.2,2.53,0.395257,2.516,0.397456,9.592,0.104254,8.74,0.114416
15416,6,SNL_18650_NMC_35C_0-100_0.5-2C_b,101,9894.06,-6.0,1.5,1.99695,4.2,2.62245,0.902116,2.62105,0.905684,10.1624,0.90509,8.66735,0.850741
15463,1,UL-PUR_N10-NA7_18650_NCA_23C_0-100_0.5-0.5C_g,1,18266.9,-1.6,1.6,2.7,4.2,3.025,1.0,3.017,1.0,11.786,1.0,10.626,1.0
15510,14,UL-PUR_N15-NA10_18650_NCA_23C_0-100_0.5-0.5C_j,261,18849.4,-1.44,1.44,2.4643,3.78,2.4713,0.770115,2.3713,0.744989,9.7472,0.785748,8.2333,0.728031
15557,6,UL-PUR_N20-NA6_18650_NCA_23C_0-100_0.5-0.5C_f,101,23393.4,-1.60015,1.60105,2.7,4.2001,3.13295,0.942241,3.12615,0.942179,12.2118,0.952484,10.63415,0.911629
15604,7,UL-PUR_R10-NA11_18650_NCA_23C_2.5-96.5_0.5-0.5C_k,121,15129.6,-1.604,1.599,2.89965,4,2.43055,0.964887,2.43115,0.962832,9.2443,0.967888,8.4655,0.957744
15651,15,UL-PUR_R15-EX4_18650_NCA_23C_2.5-96.5_0.5-0.5C_d,281,15337.1,-1.6403,1.6,2.8977,4,2.2845,0.844235,2.283,0.843681,8.72245,0.861306,7.88155,0.835973
15698,28,UL-PUR_R15-NA10_18650_NCA_23C_2.5-96.5_0.5-0.5C_j,541,14999.3,-1.599,1.60005,2.8999,4,2.2473,0.864346,2.2465,0.864704,8.6145,0.875546,7.76365,0.855687
15745,9,UL-PUR_R20-EX2_18650_NCA_23C_2.5-96.5_0.5-0.5C_b,161,18291.5,-1.6,1.601,2.9,4.0005,2.57785,0.939792,2.5749,0.938717,9.7511,0.942773,8.7834,0.925933
15792,15,UL-PUR_R20-NA7_18650_NCA_23C_2.5-96.5_0.5-0.5C_g,281,15358.6,-1.6,1.6,2.89995,4,2.3383,0.865076,2.33665,0.864785,8.937,0.883714,8.0844,0.858125
15839,21,UL-PUR_R20-NA8_18650_NCA_23C_2.5-96.5_0.5-0.5C_h,401,15655.5,-1.59915,1.60005,2.89985,4,2.20585,0.854981,2.20665,0.856286,8.4702,0.866251,7.61085,0.845744
15886,1,UL-PUR_R20-OV1_18650_NCA_23C_2.5-96.5_0.5-0.5C_a,1,17327.8,-1.6,1.601,2.9,4.0,2.744,1.0,2.742,1.0,10.345,1.0,9.478,1.0
15925,40,UL-PUR_R20-OV1_18650_NCA_23C_2.5-96.5_0.5-0.5C_a,781,15204.7,-1.28,1.2808,2.34605,3.2,1.6399,0.597631,1.55815,0.568253,6.34175,0.613026,5.35765,0.565272