File: Li-ion_Batteries/CALCE_CX2-38_prism_LCO_25C_0-100_0.5-0.5C_h_cycle_data.csv
Cycle_Index,Start_Time,End_Time,Test_Time (s),Min_Current (A),Max_Current (A),Min_Voltage (V),Max_Voltage (V),Charge_Capacity (Ah),Discharge_Capacity (Ah),Charge_Energy (Wh),Discharge_Energy (Wh)
1.0,,,13790.3,-1.349,1.189,2.699,4.2,1.396,1.362,5.604,4.889
4.0,,,54625.521,-1.349,1.19,2.699,4.2,1.379,1.36,5.525,4.887
7.0,,,95108.485,-1.349,1.17,2.699,4.2,1.378,1.353,5.493,4.874
10.0,,,135457.636,-1.349,1.176,2.699,4.2,1.362,1.339,5.444,4.821
13.0,,,175531.114,-1.349,1.164,2.699,4.2,1.365,1.344,5.444,4.857
16.0,,,211635.527,-1.349,0.675,2.699,4.198,1.138,1.126,4.505,4.005
19.0,,,251492.426,-1.349,1.163,2.699,4.2,1.352,1.333,5.395,4.814
22.0,,,291248.007,-1.349,1.167,2.699,4.2,1.34,1.32,5.359,4.753
25.0,,,330899.284,-1.349,1.165,2.699,4.2,1.339,1.323,5.357,4.777
28.0,,,370303.417,-1.349,1.163,2.699,4.2,1.343,1.324,5.357,4.789
31.0,,,409510.725,-1.349,1.154,2.699,4.2,1.344,1.324,5.358,4.79
34.0,,,448581.608,-1.349,1.152,2.699,4.2,1.342,1.322,5.349,4.786
37.0,,,487550.967,-1.349,1.151,2.699,4.2,1.34,1.32,5.34,4.782
40.0,,,526383.008,-1.349,1.154,2.699,4.2,1.338,1.313,5.333,4.743
43.0,,,565507.001,-1.349,1.158,2.699,4.2,1.323,1.301,5.287,4.688
46.0,,,604536.45,-1.349,1.156,2.699,4.2,1.328,1.308,5.3,4.73
49.0,,,643598.197,-1.349,1.159,2.699,4.2,1.315,1.295,5.258,4.661
52.0,,,682605.985,-1.349,1.157,2.699,4.2,1.32,1.301,5.271,4.699
55.0,,,722140.008,-1.349,1.175,2.699,4.2,1.353,1.332,5.405,4.799
58.0,,,761879.911,-1.349,1.167,2.699,4.2,1.35,1.321,5.389,4.759
61.0,,,801507.644,-1.349,1.165,2.699,4.2,1.335,1.309,5.337,4.705
64.0,,,841091.16,-1.349,1.166,2.699,4.2,1.325,1.301,5.298,4.675
67.0,,,880635.431,-1.349,1.169,2.699,4.2,1.317,1.296,5.273,4.653
70.0,,,920061.216,-1.349,1.169,2.699,4.2,1.312,1.292,5.254,4.644
73.0,,,959212.924,-1.349,1.161,2.699,4.2,1.304,1.284,5.224,4.607
76.0,,,998269.174,-1.349,1.157,2.699,4.2,1.302,1.283,5.211,4.605
79.0,,,1037238.571,-1.349,1.157,2.699,4.2,1.298,1.279,5.196,4.591
82.0,,,1076129.974,-1.349,1.158,2.699,4.2,1.297,1.276,5.192,4.581
85.0,,,1114968.924,-1.349,1.159,2.699,4.2,1.293,1.272,5.176,4.567
88.0,,,1153737.306,-1.349,1.153,2.699,4.2,1.291,1.269,5.171,4.557
91.0,,,1192488.574,-1.349,1.155,2.699,4.2,1.284,1.26,5.144,4.512
94.0,,,1225657.737,0.0,1.159,3.301,4.2,1.209,0.0,4.837,0.0
97.0,,,1256628.361,-1.349,1.153,2.699,4.2,1.281,1.26,5.13,4.528
100.0,,,1294996.972,-1.349,1.154,2.699,4.2,1.286,1.261,5.143,4.535
103.0,,,1333459.302,-1.349,1.16,2.699,4.2,1.279,1.258,5.12,4.519
106.0,,,1371740.811,-1.349,1.154,2.699,4.2,1.282,1.264,5.126,4.557
109.0,,,1410107.244,-1.349,1.16,2.699,4.2,1.271,1.253,5.092,4.502
112.0,,,1448420.99,-1.349,1.15,2.699,4.2,1.274,1.257,5.099,4.531
115.0,,,1486702.153,-1.349,1.156,2.699,4.2,1.266,1.246,5.077,4.474
118.0,,,1525042.999,-1.349,1.155,2.699,4.2,1.262,1.249,5.06,4.497
121.0,,,1563176.607,-1.349,1.155,2.699,4.2,1.272,1.255,5.088,4.527
124.0,,,1601200.349,-1.349,1.143,2.699,4.2,1.273,1.256,5.09,4.538
127.0,,,1639142.072,-1.349,1.142,2.699,4.2,1.276,1.257,5.098,4.544
130.0,,,1676973.813,-1.349,1.143,2.699,4.2,1.274,1.257,5.091,4.545
133.0,,,1711079.162,-1.349,0.675,2.699,4.199,1.081,1.073,4.277,3.836
136.0,,,1749091.624,-1.349,1.148,2.699,4.2,1.26,1.24,5.05,4.461
139.0,,,1786994.769,-1.349,1.157,2.699,4.2,1.256,1.245,5.032,4.488
142.0,,,1824604.498,-1.349,1.153,2.699,4.2,1.255,1.233,5.027,4.43
145.0,,,1862552.697,-1.349,1.166,2.699,4.2,1.248,1.254,5.029,4.5
148.0,,,1901063.942,-1.349,1.152,2.699,4.2,1.283,1.259,5.13,4.536
151.0,,,1939360.369,-1.349,1.158,2.699,4.2,1.266,1.247,5.074,4.482
154.0,,,1977437.47,-1.349,1.151,2.699,4.2,1.27,1.253,5.083,4.519
157.0,,,2015368.969,-1.349,1.152,2.699,4.2,1.258,1.239,5.043,4.451
160.0,,,2053280.913,-1.349,1.15,2.699,4.2,1.256,1.243,5.033,4.478
163.0,,,2090986.98,-1.349,1.143,2.699,4.2,1.264,1.245,5.055,4.492
166.0,,,2128628.607,-1.349,1.138,2.699,4.2,1.262,1.246,5.045,4.498
169.0,,,2166225.861,-1.349,1.14,2.699,4.2,1.262,1.245,5.041,4.496
172.0,,,2203802.779,-1.349,1.142,2.699,4.2,1.261,1.244,5.039,4.496
175.0,,,2241334.986,-1.349,1.137,2.699,4.2,1.263,1.245,5.045,4.502
178.0,,,2279000.46,-1.349,1.144,2.699,4.2,1.246,1.227,4.99,4.411
181.0,,,2316604.375,-1.349,1.14,2.699,4.2,1.246,1.233,4.986,4.448
184.0,,,2354174.894,-1.349,1.149,2.699,4.2,1.239,1.22,4.965,4.38
187.0,,,2391728.352,-1.349,1.149,2.699,4.2,1.236,1.222,4.953,4.394
190.0,,,2429174.853,-1.349,1.149,2.699,4.2,1.243,1.217,4.977,4.371
193.0,,,2466634.824,-1.349,1.147,2.699,4.2,1.236,1.217,4.953,4.374
196.0,,,2504668.768,-1.349,1.16,2.699,4.2,1.261,1.247,5.055,4.493
199.0,,,2542599.874,-1.349,1.152,2.699,4.2,1.256,1.234,5.027,4.438
202.0,,,2580418.235,-1.349,1.142,2.699,4.2,1.263,1.245,5.047,4.499
205.0,,,2614366.57,-1.349,0.675,2.699,4.198,1.065,1.058,4.215,3.781
208.0,,,2651968.018,-1.349,1.134,2.699,4.2,1.26,1.242,5.032,4.493
211.0,,,2689431.632,-1.349,1.141,2.699,4.2,1.259,1.241,5.027,4.488
214.0,,,2726836.833,-1.349,1.138,2.699,4.2,1.258,1.239,5.021,4.485
217.0,,,2764179.602,-1.349,1.131,2.699,4.2,1.256,1.238,5.015,4.481
220.0,,,2801503.988,-1.349,1.144,2.699,4.2,1.242,1.222,4.969,4.402
223.0,,,2838843.995,-1.349,1.147,2.699,4.2,1.237,1.216,4.954,4.374
226.0,,,2876071.764,-1.349,1.132,2.699,4.2,1.244,1.221,4.971,4.405
229.0,,,2913382.125,-1.349,1.142,2.699,4.2,1.233,1.214,4.936,4.371
232.0,,,2950603.183,-1.349,1.138,2.699,4.2,1.236,1.221,4.945,4.409
235.0,,,2987765.855,-1.349,1.147,2.699,4.2,1.225,1.207,4.91,4.341
238.0,,,3024975.026,-1.349,1.147,2.699,4.2,1.223,1.211,4.907,4.367
241.0,,,3061999.43,-1.349,1.141,2.699,4.2,1.22,1.201,4.892,4.314
244.0,,,3099092.393,-1.349,1.143,2.699,4.2,1.219,1.202,4.887,4.32
247.0,,,3124677.147,0.0,0.675,3.31,3.774,0.047,0.0,0.176,0.0
250.0,,,3162555.056,-1.349,1.154,2.699,4.2,1.25,1.233,5.008,4.445
253.0,,,3200361.815,-1.349,1.163,2.699,4.2,1.235,1.215,4.956,4.357
256.0,,,3225494.36,-1.349,0.73,2.699,4.2,0.103,1.215,0.434,4.358
259.0,,,3258963.556,-1.349,1.154,2.699,4.2,1.231,1.211,4.939,4.346
262.0,,,3296400.723,-1.349,1.148,2.699,4.2,1.234,1.206,4.938,4.327
265.0,,,3333812.238,-1.349,1.164,2.699,4.2,1.22,1.2,4.895,4.303
268.0,,,3371147.35,-1.349,1.146,2.699,4.2,1.228,1.21,4.918,4.36
271.0,,,3408477.704,-1.349,1.148,2.699,4.2,1.212,1.194,4.865,4.279
274.0,,,3445694.656,-1.349,1.146,2.699,4.2,1.218,1.202,4.884,4.324
277.0,,,3482685.347,-1.349,1.14,2.699,4.2,1.22,1.204,4.887,4.337
280.0,,,3519563.0,-1.349,1.141,2.699,4.2,1.222,1.205,4.889,4.345
283.0,,,3556355.411,-1.349,1.136,2.699,4.2,1.224,1.204,4.897,4.343
286.0,,,3593086.193,-1.349,1.138,2.699,4.2,1.223,1.205,4.892,4.347
289.0,,,3629771.958,-1.349,1.134,2.699,4.2,1.225,1.205,4.897,4.351
292.0,,,3662862.099,-1.349,1.148,2.699,4.2,1.205,1.187,4.834,4.263
295.0,,,3699734.66,-1.349,1.141,2.699,4.2,1.204,1.194,4.832,4.302
298.0,,,3736448.648,-1.349,1.159,2.699,4.2,1.201,1.179,4.82,4.227
301.0,,,3773225.181,-1.349,1.154,2.699,4.2,1.197,1.176,4.803,4.213
304.0,,,3809760.479,-1.349,1.137,2.699,4.2,1.205,1.179,4.825,4.232
307.0,,,3847074.697,-1.349,1.161,2.699,4.2,1.215,1.191,4.878,4.268
310.0,,,3884381.018,-1.349,1.153,2.699,4.2,1.223,1.198,4.903,4.307
313.0,,,3921500.43,-1.349,1.151,2.699,4.2,1.203,1.184,4.829,4.238
316.0,,,3958490.06,-1.349,1.146,2.699,4.2,1.208,1.191,4.846,4.28
319.0,,,3995215.277,-1.349,1.141,2.699,4.2,1.209,1.192,4.845,4.289
322.0,,,4031852.993,-1.349,1.151,2.699,4.2,1.211,1.192,4.85,4.292
325.0,,,4068407.329,-1.349,1.142,2.699,4.2,1.209,1.19,4.843,4.289
328.0,,,4104912.953,-1.349,1.14,2.699,4.2,1.208,1.19,4.837,4.29
331.0,,,4141486.687,-1.349,1.137,2.699,4.2,1.208,1.189,4.835,4.286
334.0,,,4178119.999,-1.349,1.163,2.699,4.2,1.186,1.168,4.762,4.186
337.0,,,4214701.125,-1.349,1.143,2.699,4.2,1.193,1.178,4.784,4.236
340.0,,,4251235.311,-1.349,1.15,2.699,4.2,1.183,1.164,4.75,4.167
343.0,,,4287700.212,-1.349,1.155,2.699,4.2,1.181,1.165,4.742,4.173
346.0,,,4324120.659,-1.349,1.157,2.699,4.2,1.189,1.161,4.765,4.156
349.0,,,4360587.42,-1.349,1.152,2.699,4.2,1.175,1.158,4.721,4.145
352.0,,,4396960.904,-1.349,1.144,2.699,4.2,1.188,1.17,4.763,4.207
355.0,,,4433366.162,-1.349,1.163,2.699,4.2,1.176,1.156,4.726,4.137
358.0,,,4470700.39,-1.349,1.154,2.699,4.2,1.195,1.182,4.8,4.244
361.0,,,4507512.556,-1.349,1.145,2.699,4.2,1.201,1.181,4.814,4.246
364.0,,,4544221.569,-1.349,1.14,2.699,4.2,1.202,1.182,4.816,4.255
367.0,,,4580809.012,-1.349,1.144,2.699,4.2,1.201,1.181,4.809,4.253
370.0,,,4617298.049,-1.349,1.143,2.699,4.2,1.199,1.18,4.801,4.251
373.0,,,4653702.515,-1.349,1.141,2.699,4.2,1.198,1.179,4.796,4.249
376.0,,,4690031.558,-1.349,1.153,2.699,4.2,1.176,1.158,4.722,4.146
379.0,,,4722386.156,-1.349,1.148,2.699,4.2,1.176,1.162,4.725,4.17
382.0,,,4758653.062,-1.349,1.16,2.699,4.2,1.178,1.153,4.728,4.125
385.0,,,4794940.531,-1.349,1.163,2.699,4.2,1.17,1.151,4.699,4.12
388.0,,,4831226.739,-1.349,1.139,2.699,4.2,1.181,1.165,4.734,4.19
391.0,,,4867490.34,-1.349,1.147,2.699,4.2,1.169,1.151,4.694,4.124
394.0,,,4899590.714,-1.349,1.155,2.699,4.2,1.178,1.16,4.729,4.167
397.0,,,4935559.912,-1.349,1.15,2.699,4.2,1.168,1.148,4.691,4.11
400.0,,,4971683.237,-1.349,1.156,2.699,4.2,1.164,1.144,4.678,4.093
403.0,,,5007797.497,-1.349,1.146,2.699,4.2,1.16,1.141,4.665,4.075
406.0,,,5044265.197,-1.349,1.154,2.699,4.2,1.151,1.167,4.652,4.192
409.0,,,5081097.533,-1.349,1.154,2.699,4.2,1.2,1.18,4.81,4.246
412.0,,,5117858.116,-1.349,1.15,2.699,4.2,1.192,1.175,4.784,4.222
415.0,,,5154545.218,-1.349,1.153,2.699,4.2,1.198,1.18,4.802,4.25
418.0,,,5191202.37,-1.349,1.157,2.699,4.2,1.188,1.169,4.766,4.199
421.0,,,5227707.474,-1.349,1.158,2.699,4.2,1.189,1.171,4.767,4.213
424.0,,,5264208.53,-1.349,1.143,2.699,4.2,1.189,1.162,4.766,4.174
427.0,,,5300552.939,-1.349,1.148,2.699,4.2,1.179,1.161,4.731,4.173
430.0,,,5336832.821,-1.349,1.141,2.699,4.2,1.185,1.167,4.748,4.203
433.0,,,5373027.822,-1.349,1.151,2.699,4.2,1.177,1.158,4.721,4.16
436.0,,,5409083.229,-1.349,1.14,2.699,4.2,1.177,1.163,4.72,4.189
439.0,,,5445080.651,-1.349,1.14,2.699,4.2,1.184,1.165,4.741,4.198
442.0,,,5481090.12,-1.349,1.141,2.699,4.2,1.186,1.167,4.749,4.211
445.0,,,5517093.474,-1.349,1.14,2.699,4.2,1.186,1.168,4.748,4.213
448.0,,,5553084.118,-1.349,1.133,2.699,4.2,1.186,1.167,4.746,4.21
451.0,,,5589075.557,-1.349,1.133,2.699,4.2,1.186,1.167,4.745,4.211
454.0,,,5625067.449,-1.349,1.144,2.699,4.2,1.17,1.15,4.691,4.134
457.0,,,5661611.406,-1.349,1.148,2.699,4.2,1.19,1.167,4.769,4.2
460.0,,,5694185.737,-1.349,1.138,2.699,4.2,1.19,1.173,4.767,4.226
463.0,,,5730571.43,-1.349,1.143,2.699,4.2,1.181,1.163,4.736,4.186
466.0,,,5766843.179,-1.349,1.147,2.699,4.2,1.178,1.165,4.721,4.195
469.0,,,5802982.271,-1.349,1.147,2.699,4.2,1.18,1.154,4.728,4.148
472.0,,,5839013.841,-1.349,1.149,2.699,4.2,1.17,1.153,4.69,4.146
475.0,,,5871223.925,-1.349,0.675,2.699,4.199,0.98,0.975,3.884,3.475
478.0,,,5907259.569,-1.349,1.157,2.699,4.2,1.166,1.148,4.676,4.128
481.0,,,5939337.037,-1.349,1.148,2.699,4.2,1.173,1.152,4.706,4.146
484.0,,,5975197.778,-1.349,1.136,2.699,4.2,1.173,1.157,4.697,4.17
487.0,,,6011085.72,-1.349,1.138,2.699,4.2,1.177,1.159,4.714,4.181
490.0,,,6046973.098,-1.349,1.138,2.699,4.2,1.177,1.158,4.712,4.18
493.0,,,6082876.924,-1.349,1.135,2.699,4.2,1.177,1.158,4.711,4.179
496.0,,,6118786.792,-1.349,1.136,2.699,4.2,1.177,1.158,4.711,4.181
499.0,,,6150891.021,-1.349,1.149,2.699,4.2,1.171,1.142,4.695,4.106
502.0,,,6186638.911,-1.349,1.15,2.699,4.2,1.161,1.142,4.656,4.105
505.0,,,6222497.023,-1.349,1.135,2.699,4.2,1.169,1.15,4.681,4.149
508.0,,,6258850.707,-1.349,1.15,2.699,4.2,1.168,1.152,4.685,4.144
511.0,,,6294804.493,-1.349,1.145,2.699,4.2,1.173,1.148,4.697,4.129
514.0,,,6330597.773,-1.349,1.143,2.699,4.2,1.162,1.144,4.659,4.114
517.0,,,6366232.196,-1.349,1.141,2.699,4.2,1.167,1.152,4.676,4.153
520.0,,,6401838.093,-1.349,1.148,2.699,4.2,1.156,1.14,4.639,4.102
523.0,,,6437406.744,-1.349,1.156,2.699,4.2,1.146,1.138,4.607,4.092
526.0,,,6469301.898,-1.349,1.151,2.699,4.2,1.159,1.122,4.651,4.017
529.0,,,6504946.558,-1.349,1.153,2.699,4.2,1.137,1.118,4.573,3.997
532.0,,,6540449.79,-1.349,1.148,2.699,4.2,1.152,1.135,4.621,4.082
535.0,,,6575907.332,-1.349,1.146,2.699,4.2,1.155,1.139,4.629,4.102
538.0,,,6611358.535,-1.349,1.145,2.699,4.2,1.16,1.142,4.649,4.116
541.0,,,6646818.151,-1.349,1.14,2.699,4.2,1.157,1.14,4.634,4.108
544.0,,,6682293.424,-1.349,1.139,2.699,4.2,1.159,1.141,4.645,4.112
547.0,,,6717771.845,-1.349,1.146,2.699,4.2,1.16,1.138,4.646,4.102
550.0,,,6753302.961,-1.349,1.153,2.699,4.2,1.131,1.113,4.547,3.982
553.0,,,6788690.835,-1.349,1.144,2.699,4.2,1.14,1.127,4.576,4.052
556.0,,,6824343.403,-1.349,1.154,2.699,4.2,1.127,1.117,4.549,3.994
559.0,,,6860242.348,-1.349,1.158,2.699,4.2,1.143,1.129,4.591,4.058
562.0,,,6895923.31,-1.349,1.167,2.699,4.2,1.129,1.11,4.542,3.963
565.0,,,6920148.711,-1.349,1.163,2.699,4.2,1.018,1.106,4.143,3.957
568.0,,,6955833.633,-1.349,1.158,2.699,4.2,1.132,1.126,4.558,4.039
571.0,,,6991369.002,-1.349,1.169,2.699,4.2,1.134,1.114,4.564,3.976
574.0,,,7027053.322,-1.349,1.163,2.699,4.2,1.13,1.112,4.549,3.969
577.0,,,7062826.339,-1.349,1.153,2.699,4.2,1.147,1.127,4.603,4.042
580.0,,,7098517.373,-1.349,1.169,2.699,4.2,1.129,1.109,4.544,3.957
583.0,,,7134198.958,-1.349,1.157,2.699,4.2,1.135,1.12,4.561,4.014
586.0,,,7169837.824,-1.349,1.16,2.699,4.2,1.125,1.11,4.525,3.968
589.0,,,7205330.532,-1.349,1.162,2.699,4.2,1.127,1.108,4.53,3.96
592.0,,,7240610.952,-1.349,1.163,2.699,4.2,1.136,1.112,4.56,3.979
595.0,,,7275958.434,-1.349,1.16,2.699,4.2,1.127,1.109,4.533,3.966
598.0,,,7311255.615,-1.349,1.15,2.699,4.2,1.132,1.115,4.549,4.001
601.0,,,7346553.449,-1.349,1.148,2.699,4.2,1.133,1.117,4.547,4.008
604.0,,,7381856.679,-1.349,1.148,2.699,4.2,1.136,1.119,4.558,4.018
607.0,,,7417172.856,-1.349,1.146,2.699,4.2,1.136,1.118,4.559,4.018
610.0,,,7452475.751,-1.349,1.146,2.699,4.2,1.133,1.116,4.547,4.006
613.0,,,7487745.822,-1.349,1.149,2.699,4.2,1.132,1.114,4.544,4.001
616.0,,,7523306.537,-1.349,1.161,2.699,4.2,1.127,1.106,4.533,3.953
619.0,,,7558892.044,-1.349,1.154,2.699,4.2,1.135,1.115,4.558,4.003
622.0,,,7594279.849,-1.349,1.171,2.699,4.2,1.119,1.101,4.503,3.936
625.0,,,7629594.455,-1.349,1.164,2.699,4.2,1.122,1.108,4.508,3.975
628.0,,,7664905.39,-1.349,1.157,2.699,4.2,1.116,1.096,4.49,3.918
631.0,,,7700153.409,-1.349,1.164,2.699,4.2,1.114,1.094,4.484,3.91
634.0,,,7735245.138,-1.349,1.159,2.699,4.2,1.12,1.098,4.501,3.929
637.0,,,7766087.425,-1.349,0.675,2.699,4.197,0.891,0.892,3.545,3.149
640.0,,,7801359.173,-1.349,1.155,2.699,4.2,1.112,1.099,4.473,3.937
643.0,,,7836482.069,-1.349,1.158,2.699,4.2,1.107,1.088,4.456,3.887
646.0,,,7867313.95,-1.349,0.675,2.699,4.197,0.886,0.887,3.526,3.127
649.0,,,7902529.311,-1.349,1.166,2.699,4.2,1.115,1.097,4.48,3.931
652.0,,,7937554.906,-1.349,1.155,2.699,4.2,1.118,1.099,4.493,3.942
655.0,,,7972605.619,-1.349,1.156,2.699,4.2,1.118,1.101,4.493,3.951
658.0,,,8007696.062,-1.349,1.152,2.699,4.2,1.119,1.103,4.494,3.959
661.0,,,8042823.765,-1.349,1.15,2.699,4.2,1.122,1.104,4.505,3.964
664.0,,,8077921.662,-1.349,1.152,2.699,4.2,1.122,1.101,4.504,3.957
667.0,,,8108950.479,-1.349,1.17,2.699,4.2,1.1,1.079,4.435,3.838
670.0,,,8144008.709,-1.349,1.155,2.699,4.2,1.108,1.084,4.457,3.869
673.0,,,8179028.518,-1.349,1.167,2.699,4.2,1.1,1.085,4.428,3.873
676.0,,,8209837.437,-1.349,1.156,2.699,4.2,1.117,1.09,4.493,3.901
679.0,,,8244754.943,-1.349,1.162,2.699,4.2,1.099,1.081,4.425,3.861
682.0,,,8279600.568,-1.349,1.167,2.699,4.2,1.098,1.081,4.42,3.862
685.0,,,8314264.16,-1.349,1.156,2.699,4.2,1.105,1.081,4.444,3.861
688.0,,,8349069.427,-1.349,1.167,2.699,4.2,1.095,1.077,4.408,3.843
691.0,,,8383943.802,-1.349,1.159,2.699,4.2,1.101,1.087,4.43,3.891
694.0,,,8418824.503,-1.349,1.16,2.699,4.2,1.098,1.081,4.417,3.864
697.0,,,8453650.393,-1.349,1.158,2.699,4.2,1.101,1.082,4.427,3.873
700.0,,,8488549.137,-1.349,1.154,2.699,4.2,1.108,1.092,4.454,3.918
703.0,,,8523283.965,-1.349,1.153,2.699,4.2,1.109,1.093,4.453,3.922
706.0,,,8558032.012,-1.349,1.155,2.699,4.2,1.112,1.094,4.467,3.927
709.0,,,8592785.889,-1.349,1.154,2.699,4.2,1.112,1.094,4.467,3.928
712.0,,,8627550.848,-1.349,1.147,2.699,4.2,1.112,1.095,4.465,3.933
715.0,,,8662662.713,-1.349,1.163,2.699,4.2,1.103,1.091,4.455,3.911
718.0,,,8697830.255,-1.349,1.155,2.699,4.2,1.117,1.1,4.488,3.949
721.0,,,8732843.356,-1.349,1.157,2.699,4.2,1.109,1.088,4.459,3.898
724.0,,,8767631.17,-1.349,1.154,2.699,4.2,1.106,1.086,4.446,3.893
727.0,,,8802278.679,-1.349,1.152,2.699,4.2,1.114,1.092,4.474,3.92
730.0,,,8836941.417,-1.349,1.159,2.699,4.2,1.101,1.084,4.424,3.884
733.0,,,8867620.218,-1.349,1.157,2.699,4.2,1.112,1.092,4.469,3.921
736.0,,,8902280.194,-1.349,1.158,2.699,4.2,1.101,1.081,4.424,3.873
739.0,,,8930988.857,-1.349,1.133,2.699,4.2,1.129,1.104,4.524,3.974
742.0,,,8965921.853,-1.349,1.156,2.699,4.2,1.109,1.097,4.454,3.94
745.0,,,8996762.523,-1.349,1.159,2.699,4.2,1.105,1.069,4.446,3.816
748.0,,,9031556.626,-1.349,1.161,2.699,4.2,1.081,1.061,4.355,3.78
751.0,,,9066317.294,-1.349,1.151,2.699,4.2,1.098,1.076,4.416,3.852
754.0,,,9100837.276,-1.349,1.16,2.699,4.2,1.076,1.055,4.338,3.752
757.0,,,9135321.484,-1.349,1.168,2.699,4.2,1.078,1.067,4.344,3.81
760.0,,,9165826.598,-1.349,1.166,2.699,4.2,1.073,1.049,4.327,3.728
763.0,,,9200261.518,-1.349,1.191,2.699,4.2,1.064,1.045,4.294,3.714
766.0,,,9234581.251,-1.349,1.178,2.699,4.2,1.056,1.039,4.264,3.686
769.0,,,9268933.714,-1.349,1.169,2.699,4.2,1.057,1.044,4.268,3.709
772.0,,,9303296.106,-1.349,1.165,2.699,4.2,1.068,1.051,4.304,3.746
775.0,,,9337637.668,-1.349,1.164,2.699,4.2,1.071,1.054,4.316,3.758
778.0,,,9371992.026,-1.349,1.167,2.699,4.2,1.071,1.054,4.315,3.762
781.0,,,9406324.446,-1.349,1.175,2.699,4.2,1.068,1.052,4.303,3.753
784.0,,,9440671.979,-1.349,1.173,2.699,4.2,1.068,1.052,4.302,3.752
787.0,,,9475022.195,-1.349,1.163,2.699,4.2,1.067,1.051,4.3,3.748
790.0,,,9510047.502,-1.349,1.171,2.699,4.2,1.083,1.061,4.36,3.788
793.0,,,9540457.112,-1.349,1.166,2.699,4.2,1.084,1.055,4.369,3.764
796.0,,,9574969.635,-1.349,1.174,2.699,4.2,1.076,1.06,4.332,3.786
799.0,,,9609388.747,-1.349,1.182,2.699,4.2,1.072,1.055,4.317,3.765
802.0,,,9643796.521,-1.349,1.166,2.699,4.2,1.071,1.054,4.317,3.764
805.0,,,9673991.904,-1.349,0.675,2.699,4.199,0.845,0.846,3.366,2.976
808.0,,,9704189.344,-1.349,1.172,2.699,4.2,1.071,1.04,4.321,3.7
811.0,,,9738329.143,-1.349,1.171,2.699,4.2,1.057,1.04,4.263,3.703
814.0,,,9772450.739,-1.349,1.171,2.699,4.2,1.053,1.036,4.247,3.683
817.0,,,9806601.436,-1.349,1.181,2.699,4.2,1.045,1.027,4.219,3.645
820.0,,,9840857.631,-1.349,1.179,2.699,4.2,1.045,1.027,4.218,3.65
823.0,,,9875063.648,-1.349,1.178,2.699,4.2,1.04,1.021,4.203,3.623
826.0,,,9909051.618,-1.349,1.186,2.699,4.2,1.036,1.019,4.185,3.616
829.0,,,9942898.242,-1.349,1.176,2.699,4.2,1.037,1.02,4.188,3.618
832.0,,,9976724.732,-1.349,1.171,2.699,4.2,1.035,1.018,4.182,3.613
835.0,,,10010552.944,-1.349,1.175,2.699,4.2,1.034,1.016,4.177,3.605
838.0,,,10044929.176,-1.349,1.173,2.699,4.2,1.015,1.026,4.127,3.651
841.0,,,10079356.178,-1.349,1.175,2.699,4.2,1.045,1.026,4.221,3.643
844.0,,,10113764.414,-1.349,1.175,2.699,4.2,1.042,1.028,4.212,3.655
847.0,,,10148085.666,-1.349,1.171,2.699,4.2,1.042,1.023,4.21,3.63
850.0,,,10182185.807,-1.349,1.173,2.699,4.2,1.03,1.013,4.163,3.585
853.0,,,10216181.403,-1.349,1.175,2.699,4.2,1.03,1.014,4.164,3.595
856.0,,,10250106.577,-1.349,1.185,2.699,4.2,1.023,1.007,4.137,3.562
859.0,,,10284094.422,-1.349,1.178,2.699,4.2,1.023,1.007,4.139,3.568
862.0,,,10318060.886,-1.349,1.177,2.699,4.2,1.022,1.003,4.133,3.552
865.0,,,10347258.069,-1.349,0.675,2.699,4.196,0.774,0.781,3.092,2.725
868.0,,,10381274.211,-1.349,1.203,2.699,4.2,1.015,0.996,4.105,3.523
871.0,,,10415178.809,-1.349,1.181,2.699,4.2,1.027,1.01,4.147,3.589
874.0,,,10449102.947,-1.349,1.176,2.699,4.2,1.03,1.012,4.162,3.6
877.0,,,10478477.826,-1.349,0.675,2.699,4.199,0.8,0.805,3.192,2.823
880.0,,,10512424.196,-1.349,1.172,2.699,4.2,1.028,1.011,4.152,3.594
883.0,,,10546114.966,-1.349,1.18,2.699,4.2,1.016,0.996,4.11,3.524
886.0,,,10579546.79,-1.349,1.186,2.699,4.2,1.007,0.989,4.074,3.497
889.0,,,10613640.017,-1.349,1.176,2.699,4.2,1.019,1.001,4.12,3.55
892.0,,,10647505.436,-1.349,1.185,2.699,4.2,1.01,0.994,4.087,3.519
895.0,,,10681357.409,-1.349,1.189,2.699,4.2,1.012,0.998,4.095,3.54
898.0,,,10715160.659,-1.349,1.182,2.699,4.2,1.011,0.992,4.09,3.513
901.0,,,10748693.907,-1.349,1.184,2.699,4.2,0.999,0.984,4.046,3.476
904.0,,,10782034.576,-1.349,1.181,2.699,4.2,0.996,0.979,4.036,3.456
907.0,,,10804523.009,-1.349,1.171,2.699,4.2,1.009,0.996,4.079,3.535
910.0,,,10837716.046,-1.349,1.176,2.699,4.2,1.002,0.987,4.052,3.496
913.0,,,10870986.069,-1.349,1.177,2.699,4.2,0.998,0.982,4.037,3.478
916.0,,,10904279.364,-1.349,1.183,2.699,4.2,1.001,0.983,4.048,3.484
919.0,,,10937528.45,-1.349,1.2,2.699,4.2,0.993,0.975,4.019,3.45
922.0,,,10970735.131,-1.349,1.184,2.699,4.2,0.991,0.978,4.011,3.467
925.0,,,11003922.804,-1.349,1.178,2.699,4.2,0.985,0.966,3.987,3.417
928.0,,,11037045.094,-1.349,1.178,2.699,4.2,0.979,0.961,3.968,3.397
931.0,,,11070112.704,-1.349,1.189,2.699,4.2,0.976,0.959,3.954,3.392
934.0,,,11103107.333,-1.349,1.182,2.699,4.2,0.971,0.955,3.935,3.372
937.0,,,11131231.703,-1.349,0.675,2.699,4.199,0.726,0.736,2.907,2.565
940.0,,,11164502.778,-1.349,1.184,2.699,4.2,0.973,0.955,3.942,3.375
943.0,,,11197501.867,-1.349,1.188,2.699,4.2,0.966,0.949,3.919,3.352
946.0,,,11230477.816,-1.349,1.182,2.699,4.2,0.963,0.946,3.905,3.34
949.0,,,11258518.135,-1.349,0.675,2.699,4.197,0.716,0.726,2.868,2.527
952.0,,,11291698.456,-1.349,1.209,2.699,4.2,0.959,0.941,3.888,3.32
955.0,,,11324592.435,-1.349,1.205,2.699,4.2,0.959,0.945,3.89,3.338
958.0,,,11358889.132,-1.349,1.18,2.699,4.2,0.995,0.976,4.031,3.457
961.0,,,11392606.603,-1.349,1.195,2.699,4.2,0.994,0.974,4.026,3.444
964.0,,,11421364.009,-1.349,0.675,2.699,4.198,0.743,0.751,2.975,2.62
967.0,,,11455255.809,-1.349,1.178,2.699,4.2,0.982,0.963,3.979,3.4
970.0,,,11484022.599,-1.349,1.194,2.699,4.2,0.988,0.956,4.006,3.374
973.0,,,11517637.644,-1.349,1.185,2.699,4.2,0.975,0.959,3.954,3.386
976.0,,,11551044.585,-1.349,1.209,2.699,4.2,0.972,0.953,3.941,3.362
979.0,,,11584420.031,-1.349,1.19,2.699,4.2,0.968,0.954,3.925,3.368
982.0,,,11617772.466,-1.349,1.184,2.699,4.2,0.97,0.954,3.933,3.367
985.0,,,11651107.352,-1.349,1.186,2.699,4.2,0.969,0.953,3.93,3.362
988.0,,,11684462.883,-1.349,1.18,2.699,4.2,0.974,0.956,3.946,3.377
991.0,,,11717634.811,-1.349,1.214,2.699,4.2,0.965,0.947,3.912,3.342
994.0,,,11750806.801,-1.349,1.189,2.699,4.2,0.961,0.946,3.896,3.337
997.0,,,11783915.763,-1.349,1.179,2.699,4.2,0.96,0.941,3.892,3.315
1000.0,,,11812215.409,-1.349,1.182,2.699,4.2,0.966,0.934,3.922,3.291
1003.0,,,11845410.522,-1.349,1.186,2.699,4.2,0.956,0.942,3.88,3.323
1006.0,,,11878983.821,-1.349,1.18,2.699,4.2,0.948,0.958,3.869,3.389
1009.0,,,11912640.958,-1.349,1.207,2.699,4.2,0.975,0.954,3.953,3.37
1012.0,,,11946113.33,-1.349,1.183,2.699,4.2,0.973,0.959,3.942,3.391
1015.0,,,11979508.534,-1.349,1.207,2.699,4.2,0.969,0.949,3.93,3.35
1018.0,,,12012804.308,-1.349,1.196,2.699,4.2,0.961,0.944,3.897,3.329
1021.0,,,12041271.18,-1.349,1.189,2.699,4.2,0.957,0.941,3.882,3.317
1024.0,,,12074480.037,-1.349,1.186,2.699,4.2,0.953,0.933,3.866,3.287
1027.0,,,12107573.411,-1.349,1.192,2.699,4.2,0.948,0.929,3.847,3.268
1030.0,,,12140626.965,-1.349,1.19,2.699,4.2,0.947,0.932,3.844,3.28
1033.0,,,12173632.234,-1.349,1.182,2.699,4.2,0.942,0.926,3.825,3.257
1036.0,,,12206587.048,-1.349,1.192,2.699,4.2,0.946,0.929,3.838,3.271
1039.0,,,12239534.786,-1.349,1.189,2.699,4.2,0.943,0.925,3.826,3.255
1042.0,,,12272436.311,-1.349,1.197,2.699,4.2,0.935,0.919,3.798,3.229
1045.0,,,12305351.837,-1.349,1.202,2.699,4.2,0.94,0.919,3.816,3.233
1048.0,,,12338163.486,-1.349,1.223,2.699,4.2,0.93,0.913,3.778,3.204
1051.0,,,12370987.116,-1.349,1.188,2.699,4.2,0.927,0.914,3.766,3.21
1054.0,,,12403722.372,-1.349,1.219,2.699,4.2,0.934,0.918,3.794,3.226
1057.0,,,12437386.522,-1.349,1.193,2.699,4.2,0.96,0.933,3.895,3.285
1060.0,,,12470701.704,-1.349,1.188,2.699,4.2,0.949,0.931,3.854,3.272
1063.0,,,12503945.509,-1.349,1.191,2.699,4.2,0.952,0.933,3.861,3.283
1066.0,,,12532266.648,-1.349,1.198,2.699,4.2,0.946,0.925,3.841,3.252
1069.0,,,12560485.286,-1.349,1.19,2.699,4.2,0.941,0.922,3.822,3.238
1072.0,,,12593647.071,-1.349,1.189,2.699,4.2,0.943,0.926,3.828,3.257
1075.0,,,12626650.745,-1.349,1.216,2.699,4.2,0.942,0.924,3.822,3.247
1078.0,,,12659625.482,-1.349,1.187,2.699,4.2,0.941,0.927,3.819,3.261
1081.0,,,12692624.945,-1.349,1.207,2.699,4.2,0.942,0.924,3.825,3.248
1084.0,,,12725486.947,-1.349,1.188,2.699,4.2,0.93,0.912,3.778,3.201
1087.0,,,12758401.237,-1.349,1.19,2.699,4.2,0.93,0.917,3.778,3.222
1090.0,,,12791161.057,-1.349,1.203,2.699,4.2,0.926,0.907,3.763,3.181
1093.0,,,12823914.509,-1.349,1.205,2.699,4.2,0.923,0.909,3.751,3.19
1096.0,,,12856718.286,-1.349,1.187,2.699,4.2,0.931,0.913,3.782,3.206
1099.0,,,12889499.12,-1.349,1.195,2.699,4.2,0.921,0.904,3.744,3.169
1102.0,,,12922197.315,-1.349,1.222,2.699,4.2,0.92,0.905,3.74,3.173
1105.0,,,12954797.703,-1.349,1.203,2.699,4.2,0.917,0.899,3.727,3.149
1108.0,,,12988738.718,-1.349,1.195,2.699,4.2,0.951,0.927,3.859,3.263
1111.0,,,13021843.668,-1.349,1.188,2.699,4.2,0.935,0.918,3.8,3.219
1114.0,,,13054279.09,-1.349,1.182,2.699,4.2,0.938,0.921,3.808,3.235
1117.0,,,13087342.438,-1.349,1.195,2.699,4.2,0.934,0.913,3.792,3.203
1120.0,,,13120257.871,-1.349,1.196,2.699,4.2,0.923,0.908,3.753,3.184
1123.0,,,13153192.554,-1.349,1.198,2.699,4.2,0.933,0.915,3.789,3.215
1126.0,,,13186053.688,-1.349,1.199,2.699,4.2,0.925,0.908,3.758,3.185
1129.0,,,13218916.632,-1.349,1.195,2.699,4.2,0.929,0.913,3.773,3.207
1132.0,,,13251804.584,-1.349,1.195,2.699,4.2,0.925,0.91,3.756,3.191
1135.0,,,13284614.499,-1.349,1.191,2.699,4.2,0.923,0.905,3.749,3.173
1138.0,,,13317506.77,-1.349,1.189,2.699,4.2,0.928,0.908,3.768,3.185
1141.0,,,13350265.061,-1.349,1.203,2.699,4.2,0.917,0.9,3.728,3.152
1144.0,,,13383005.114,-1.349,1.206,2.699,4.2,0.909,0.894,3.698,3.128
1147.0,,,13415711.901,-1.349,1.196,2.699,4.2,0.912,0.895,3.707,3.135
1150.0,,,13448310.965,-1.349,1.205,2.699,4.2,0.908,0.887,3.691,3.102
1153.0,,,13480927.679,-1.349,1.187,2.699,4.2,0.907,0.89,3.687,3.114
1156.0,,,13514078.874,-1.349,1.226,2.699,4.2,0.898,0.904,3.676,3.172
1159.0,,,13547241.641,-1.349,1.191,2.699,4.2,0.918,0.897,3.732,3.141
1162.0,,,13580035.019,-1.349,1.191,2.699,4.2,0.905,0.887,3.682,3.097
1165.0,,,13612808.743,-1.349,1.211,2.699,4.2,0.912,0.896,3.704,3.138
1168.0,,,13645494.738,-1.349,1.189,2.699,4.2,0.906,0.889,3.685,3.108
1171.0,,,13678163.175,-1.349,1.21,2.699,4.2,0.911,0.894,3.701,3.132
1174.0,,,13710895.639,-1.349,1.201,2.699,4.2,0.911,0.89,3.701,3.114
1177.0,,,13743527.777,-1.349,1.202,2.699,4.2,0.903,0.883,3.671,3.088
1180.0,,,13776049.736,-1.349,1.195,2.699,4.2,0.902,0.886,3.665,3.1
1183.0,,,13808484.134,-1.349,1.195,2.699,4.2,0.897,0.88,3.647,3.076
1186.0,,,13840897.788,-1.349,1.198,2.699,4.2,0.893,0.877,3.631,3.065
1189.0,,,13873318.486,-1.349,1.204,2.699,4.2,0.9,0.873,3.661,3.052
1192.0,,,13905363.985,-1.349,1.201,2.699,4.2,0.884,0.867,3.596,3.028
1195.0,,,13937350.826,-1.349,1.194,2.699,4.2,0.878,0.861,3.575,3.005
1198.0,,,13969238.392,-1.349,1.188,2.699,4.2,0.878,0.858,3.572,2.994
1201.0,,,14001001.2,-1.349,1.199,2.699,4.2,0.873,0.852,3.553,2.967
1204.0,,,14032674.283,-1.349,1.204,2.699,4.2,0.865,0.85,3.523,2.957
1207.0,,,14060412.042,-1.349,1.215,2.699,4.2,0.921,0.894,3.74,3.136
1210.0,,,14093251.872,-1.349,1.189,2.699,4.2,0.902,0.882,3.666,3.085
1213.0,,,14125821.269,-1.349,1.195,2.699,4.2,0.896,0.883,3.642,3.088
1216.0,,,14158156.789,-1.349,1.186,2.699,4.2,0.895,0.878,3.639,3.07
1219.0,,,14190247.576,-1.349,1.203,2.699,4.2,0.888,0.869,3.612,3.034
1222.0,,,14222345.287,-1.349,1.197,2.699,4.2,0.883,0.868,3.591,3.032
1225.0,,,14254428.859,-1.349,1.192,2.699,4.2,0.879,0.861,3.578,3.001
1228.0,,,14286371.966,-1.349,1.213,2.699,4.2,0.872,0.854,3.55,2.976
1231.0,,,14318259.643,-1.349,1.198,2.699,4.2,0.877,0.861,3.568,3.007
1234.0,,,14350166.882,-1.349,1.191,2.699,4.2,0.869,0.853,3.539,2.973
1237.0,,,14382162.773,-1.349,1.193,2.699,4.2,0.868,0.849,3.534,2.961
1240.0,,,14414346.1,-1.349,1.188,2.699,4.2,0.867,0.851,3.532,2.967
1243.0,,,14446095.128,-1.349,1.192,2.699,4.2,0.859,0.841,3.499,2.927
1246.0,,,14477687.03,-1.349,1.188,2.699,4.2,0.854,0.837,3.479,2.91
1249.0,,,14509345.132,-1.349,1.194,2.699,4.2,0.859,0.841,3.496,2.925
1252.0,,,14535833.024,-1.349,1.212,2.699,4.2,0.854,0.835,3.479,2.903
1255.0,,,14567522.049,-1.349,1.196,2.699,4.2,0.857,0.839,3.49,2.921
1258.0,,,14600659.02,-1.349,1.193,2.699,4.2,0.897,0.87,3.645,3.042
1261.0,,,14632749.67,-1.349,1.184,2.699,4.2,0.88,0.861,3.579,3.004
1264.0,,,14664765.63,-1.349,1.194,2.699,4.2,0.877,0.862,3.568,3.01
1267.0,,,14696817.287,-1.349,1.198,2.699,4.2,0.881,0.861,3.581,3.007
1270.0,,,14728800.856,-1.349,1.188,2.699,4.2,0.872,0.855,3.549,2.984
1273.0,,,14760803.793,-1.349,1.194,2.699,4.2,0.876,0.86,3.564,3.003
1276.0,,,14792715.663,-1.349,1.191,2.699,4.2,0.867,0.849,3.529,2.959
1279.0,,,14819448.117,-1.349,1.196,2.699,4.2,0.861,0.843,3.506,2.935
1282.0,,,14851277.818,-1.349,1.202,2.699,4.2,0.864,0.845,3.518,2.945
1285.0,,,14882976.835,-1.349,1.2,2.699,4.2,0.855,0.836,3.481,2.908
1288.0,,,14914634.355,-1.349,1.192,2.699,4.2,0.85,0.832,3.465,2.894
1291.0,,,14946324.55,-1.349,1.189,2.699,4.2,0.85,0.836,3.464,2.909
1294.0,,,14978013.038,-1.349,1.204,2.699,4.2,0.851,0.833,3.466,2.895
1297.0,,,15009656.026,-1.349,1.199,2.699,4.2,0.846,0.828,3.448,2.879
1300.0,,,15041281.208,-1.349,1.201,2.699,4.2,0.846,0.828,3.446,2.877
1303.0,,,15067640.154,-1.349,1.2,2.699,4.2,0.854,0.824,3.485,2.864
1306.0,,,15100105.091,-1.349,1.209,2.699,4.2,0.846,0.856,3.468,2.991
1309.0,,,15132569.79,-1.349,1.201,2.699,4.2,0.867,0.846,3.532,2.943
1312.0,,,15164766.713,-1.349,1.197,2.699,4.2,0.862,0.846,3.509,2.943
1315.0,,,15196886.729,-1.349,1.194,2.699,4.2,0.853,0.836,3.476,2.905
1318.0,,,15228839.576,-1.349,1.188,2.699,4.2,0.847,0.829,3.452,2.878
1321.0,,,15260813.005,-1.349,1.22,2.699,4.2,0.847,0.832,3.45,2.891
1324.0,,,15287010.946,-1.349,0.675,2.699,4.199,0.574,0.582,2.306,1.994
1327.0,,,15319267.877,-1.349,1.202,2.699,4.2,0.843,0.824,3.434,2.858
1330.0,,,15351209.086,-1.349,1.187,2.699,4.2,0.846,0.83,3.447,2.882
1333.0,,,15382791.339,-1.349,1.213,2.699,4.2,0.878,0.848,3.57,2.96
1336.0,,,15414734.883,-1.349,1.198,2.699,4.2,0.857,0.838,3.488,2.916
1339.0,,,15446684.914,-1.349,1.185,2.699,4.2,0.85,0.835,3.46,2.902
1342.0,,,15478625.488,-1.349,1.189,2.699,4.2,0.852,0.833,3.468,2.895
1345.0,,,15510499.75,-1.349,1.183,2.699,4.2,0.843,0.824,3.434,2.859
1348.0,,,15542322.088,-1.349,1.198,2.699,4.2,0.84,0.822,3.421,2.854
1351.0,,,15568795.711,-1.349,1.19,2.699,4.2,0.838,0.818,3.414,2.84
1354.0,,,15600474.821,-1.349,1.205,2.699,4.2,0.83,0.811,3.385,2.81
1357.0,,,15632151.608,-1.349,1.197,2.699,4.2,0.831,0.814,3.385,2.823
1360.0,,,15663690.779,-1.349,1.189,2.699,4.2,0.823,0.804,3.357,2.784
1363.0,,,15695090.574,-1.349,1.201,2.699,4.2,0.816,0.799,3.327,2.763
1366.0,,,15726433.23,-1.349,1.209,2.699,4.2,0.815,0.798,3.324,2.758
1369.0,,,15757802.341,-1.349,1.194,2.699,4.2,0.814,0.799,3.321,2.765
1372.0,,,15789090.08,-1.349,1.203,2.699,4.2,0.814,0.795,3.319,2.749
1375.0,,,15820391.876,-1.349,1.211,2.699,4.2,0.813,0.798,3.316,2.759
1378.0,,,15851654.303,-1.349,1.223,2.699,4.2,0.811,0.794,3.309,2.745
1381.0,,,15882925.364,-1.349,1.186,2.699,4.2,0.811,0.796,3.309,2.753
1384.0,,,15915210.428,-1.349,1.188,2.699,4.2,0.834,0.808,3.397,2.806
1387.0,,,15946441.961,-1.349,1.208,2.699,4.2,0.821,0.799,3.348,2.769
1390.0,,,15977703.083,-1.349,1.187,2.699,4.2,0.818,0.801,3.334,2.777
1393.0,,,16008840.396,-1.349,1.18,2.699,4.2,0.808,0.79,3.296,2.73
1396.0,,,16039835.374,-1.349,1.2,2.699,4.2,0.801,0.783,3.267,2.705
1399.0,,,16070848.697,-1.349,1.191,2.699,4.2,0.804,0.789,3.28,2.728
1402.0,,,16093920.151,-1.349,1.185,2.699,4.2,0.822,0.802,3.346,2.771
1405.0,,,16119497.159,-1.349,1.217,2.699,4.2,0.813,0.777,3.319,2.684
1408.0,,,16150277.993,-1.349,1.2,2.699,4.2,0.793,0.773,3.235,2.665
1411.0,,,16180935.455,-1.349,1.2,2.699,4.2,0.784,0.768,3.202,2.646
1414.0,,,16211507.515,-1.349,1.198,2.699,4.2,0.782,0.763,3.193,2.627
1417.0,,,16241980.169,-1.349,1.179,2.699,4.2,0.776,0.76,3.17,2.616
1420.0,,,16272423.378,-1.349,1.202,2.699,4.2,0.774,0.757,3.161,2.606
1423.0,,,16302797.006,-1.349,1.202,2.699,4.2,0.771,0.753,3.151,2.587
1426.0,,,16333072.247,-1.349,1.192,2.699,4.2,0.767,0.753,3.131,2.589
1429.0,,,16363429.131,-1.349,1.196,2.699,4.2,0.771,0.752,3.146,2.587
1432.0,,,16393622.732,-1.349,1.179,2.699,4.2,0.761,0.745,3.109,2.557
1435.0,,,16423815.672,-1.349,1.193,2.699,4.2,0.762,0.745,3.113,2.56
1438.0,,,16453961.37,-1.349,1.189,2.699,4.2,0.761,0.743,3.109,2.55
1441.0,,,16478663.872,-1.349,1.205,2.699,4.2,0.757,0.738,3.095,2.532
1444.0,,,16508734.594,-1.349,1.179,2.699,4.2,0.758,0.741,3.099,2.546
1447.0,,,16533007.729,-1.349,0.675,2.699,4.199,0.49,0.498,1.971,1.691
1450.0,,,16563395.936,-1.349,1.18,2.699,4.2,0.749,0.734,3.062,2.517
1453.0,,,16594772.312,-1.349,1.188,2.699,4.2,0.77,0.747,3.144,2.564
1456.0,,,16625016.271,-1.349,1.176,2.699,4.2,0.755,0.738,3.088,2.528
1459.0,,,16655072.082,-1.349,1.174,2.699,4.2,0.75,0.733,3.066,2.512
1462.0,,,16685015.289,-1.349,1.185,2.699,4.2,0.744,0.726,3.042,2.487
1465.0,,,16714765.976,-1.349,1.186,2.699,4.2,0.737,0.721,3.016,2.469
1468.0,,,16744402.5,-1.349,1.184,2.699,4.2,0.733,0.718,2.997,2.457
1471.0,,,16773907.73,-1.349,1.174,2.699,4.2,0.727,0.712,2.973,2.433
1474.0,,,16803279.743,-1.349,1.173,2.699,4.2,0.724,0.708,2.965,2.418
1477.0,,,16832667.31,-1.349,1.179,2.699,4.2,0.726,0.715,2.97,2.448
1480.0,,,16862097.543,-1.349,1.21,2.699,4.2,0.731,0.712,2.99,2.433
1483.0,,,16891382.716,-1.349,1.194,2.699,4.2,0.72,0.704,2.946,2.406
1486.0,,,16914871.865,-1.349,0.675,2.699,4.196,0.457,0.472,1.843,1.599
1489.0,,,16944610.867,-1.349,1.191,2.699,4.2,0.726,0.705,2.97,2.411
1492.0,,,16973706.376,-1.349,1.172,2.699,4.2,0.714,0.699,2.921,2.385
1495.0,,,17002802.923,-1.349,1.188,2.699,4.2,0.717,0.703,2.936,2.405
1498.0,,,17032010.915,-1.349,1.183,2.699,4.2,0.722,0.704,2.954,2.405
1501.0,,,17061910.725,-1.349,1.21,2.699,4.2,0.709,0.713,2.926,2.447
1504.0,,,17091240.987,-1.349,1.192,2.699,4.2,0.717,0.697,2.934,2.381
1507.0,,,17120223.102,-1.349,1.177,2.699,4.2,0.706,0.692,2.891,2.359
1510.0,,,17149217.589,-1.349,1.17,2.699,4.2,0.71,0.692,2.907,2.362
1513.0,,,17172700.841,-1.349,1.174,2.699,4.2,0.7,0.682,2.868,2.322
1516.0,,,17201261.281,-1.349,1.176,2.699,4.2,0.692,0.676,2.837,2.298
1519.0,,,17229715.206,-1.349,1.186,2.699,4.2,0.688,0.673,2.818,2.289
1522.0,,,17258092.953,-1.349,1.166,2.699,4.2,0.687,0.671,2.814,2.28
1525.0,,,17286350.144,-1.349,1.186,2.699,4.2,0.681,0.667,2.792,2.266
1528.0,,,17314515.218,-1.349,1.198,2.699,4.2,0.68,0.664,2.788,2.257
1531.0,,,17342592.634,-1.349,1.177,2.699,4.2,0.678,0.662,2.777,2.248
1534.0,,,17370603.591,-1.349,1.18,2.699,4.2,0.675,0.659,2.768,2.235
1537.0,,,17398582.11,-1.349,1.172,2.699,4.2,0.675,0.659,2.768,2.238
1540.0,,,17426542.967,-1.349,1.178,2.699,4.2,0.672,0.658,2.755,2.233
1543.0,,,17454366.158,-1.349,1.171,2.699,4.2,0.669,0.652,2.744,2.211
1546.0,,,17482331.606,-1.349,1.165,2.699,4.2,0.677,0.661,2.772,2.247
1549.0,,,17510527.063,-1.349,1.18,2.699,4.2,0.675,0.671,2.765,2.281
1552.0,,,17540202.526,-1.349,1.182,2.699,4.2,0.706,0.678,2.89,2.312
1555.0,,,17568779.563,-1.349,1.168,2.699,4.2,0.69,0.691,2.827,2.358
1558.0,,,17597947.414,-1.349,1.168,2.699,4.2,0.709,0.671,2.901,2.282
1561.0,,,17626340.246,-1.349,1.176,2.699,4.2,0.678,0.66,2.777,2.239
1564.0,,,17654573.432,-1.349,1.167,2.699,4.2,0.673,0.675,2.759,2.297
1567.0,,,17683740.668,-1.349,1.181,2.699,4.2,0.712,0.698,2.911,2.387
1570.0,,,17713237.468,-1.349,1.171,2.699,4.2,0.723,0.708,2.956,2.423
1573.0,,,17742901.692,-1.349,1.179,2.699,4.2,0.73,0.715,2.982,2.448
1576.0,,,17772708.334,-1.349,1.181,2.699,4.2,0.735,0.719,3.002,2.462
1579.0,,,17796778.245,-1.349,0.675,2.699,4.197,0.474,0.498,1.907,1.694
1582.0,,,17827344.884,-1.349,1.177,2.699,4.2,0.741,0.725,3.026,2.486
1585.0,,,17856924.25,-1.349,1.165,2.699,4.2,0.719,0.67,2.939,2.274
1588.0,,,17885157.436,-1.349,1.168,2.699,4.2,0.669,0.647,2.74,2.191
1591.0,,,17904238.313,0.0,0.675,3.582,3.92,0.059,0.0,0.228,0.0
1594.0,,,17932431.648,-1.349,1.161,2.699,4.2,0.668,0.658,2.736,2.24
1597.0,,,17960635.577,-1.349,1.179,2.699,4.2,0.685,0.654,2.801,2.222
1600.0,,,17988216.677,-1.349,1.152,2.699,4.2,0.656,0.635,2.69,2.153
1603.0,,,18006742.09,-1.349,1.168,2.699,4.2,0.655,0.641,2.687,2.175
1606.0,,,18034837.826,-1.349,1.162,2.699,4.2,0.674,0.661,2.762,2.251
1609.0,,,18063132.131,-1.349,1.156,2.699,4.2,0.681,0.666,2.788,2.271
1612.0,,,18091521.476,-1.349,1.167,2.699,4.2,0.684,0.669,2.802,2.282
1615.0,,,18119920.292,-1.349,1.163,2.699,4.2,0.689,0.672,2.823,2.292
1618.0,,,18148328.098,-1.35,1.163,2.699,4.2,0.689,0.672,2.82,2.291
1621.0,,,18175948.525,-1.349,1.183,2.699,4.2,0.684,0.671,2.801,2.288
1624.0,,,18204372.974,-1.349,1.169,2.699,4.2,0.685,0.671,2.803,2.29
1627.0,,,18231425.161,-1.349,1.183,2.699,4.2,0.626,0.611,2.571,2.063
1630.0,,,18249037.359,-1.349,1.162,2.699,4.2,0.304,0.596,1.274,2.01
1633.0,,,18275475.177,-1.349,1.169,2.699,4.2,0.621,0.621,2.549,2.103
1636.0,,,18301915.141,-1.349,1.171,2.699,4.2,0.611,0.588,2.51,1.979
1639.0,,,18327756.325,-1.349,1.173,2.699,4.2,0.599,0.582,2.463,1.959
1642.0,,,18353249.596,-1.349,1.171,2.699,4.2,0.584,0.583,2.403,1.963
1645.0,,,18379178.746,-1.349,1.173,2.699,4.2,0.609,0.586,2.501,1.978
1648.0,,,18404405.08,-1.349,1.16,2.699,4.2,0.579,0.565,2.383,1.899
1651.0,,,18429341.597,-1.349,1.154,2.699,4.2,0.572,0.554,2.353,1.857
1654.0,,,18454676.484,-1.349,1.166,2.699,4.2,0.592,0.581,2.433,1.96
1657.0,,,18479846.561,-1.349,1.158,2.699,4.2,0.571,0.55,2.351,1.845
1660.0,,,18504499.956,-1.349,1.185,2.699,4.2,0.564,0.548,2.32,1.836
1663.0,,,18528928.81,-1.349,1.178,2.699,4.2,0.556,0.559,2.289,1.878
1666.0,,,18554072.908,-1.349,1.188,2.699,4.2,0.581,0.558,2.386,1.873
1669.0,,,18578514.556,-1.349,1.16,2.699,4.2,0.554,0.541,2.28,1.811
1672.0,,,18602727.099,-1.349,1.152,2.699,4.2,0.548,0.528,2.256,1.763
1675.0,,,18627412.449,-1.349,1.168,2.699,4.2,0.571,0.563,2.35,1.892
1678.0,,,18652812.354,-1.349,1.16,2.699,4.2,0.588,0.576,2.417,1.943
1681.0,,,18679170.547,-1.349,1.18,2.699,4.2,0.586,0.559,2.408,1.88
1684.0,,,18704526.779,-1.349,1.15,2.699,4.2,0.587,0.578,2.413,1.949
1687.0,,,18730032.436,-1.349,1.163,2.699,4.2,0.582,0.552,2.393,1.849
1690.0,,,18754594.832,-1.349,1.157,2.699,4.2,0.554,0.538,2.28,1.798
1693.0,,,18778835.241,-1.349,1.151,2.699,4.2,0.542,0.53,2.234,1.772
1696.0,,,18803740.781,-1.349,1.161,2.699,4.2,0.572,0.561,2.355,1.888
1699.0,,,18828046.377,-1.349,1.171,2.699,4.2,0.541,0.53,2.229,1.771
1702.0,,,18847413.686,-1.349,1.175,2.699,4.2,0.568,0.522,2.339,1.746
1705.0,,,18871026.162,-1.349,1.153,2.699,4.2,0.524,0.527,2.163,1.763
1708.0,,,18895319.793,-1.349,1.181,2.699,4.2,0.555,0.534,2.286,1.79
1711.0,,,18918985.165,-1.349,1.174,2.699,4.2,0.526,0.516,2.17,1.724
1714.0,,,18942401.513,-1.349,1.182,2.699,4.2,0.522,0.502,2.152,1.674
1717.0,,,18965883.129,-1.349,1.157,2.699,4.2,0.538,0.53,2.217,1.775
1720.0,,,18989617.694,-1.349,1.164,2.699,4.2,0.529,0.503,2.181,1.677
1723.0,,,19012642.66,-1.349,1.149,2.699,4.2,0.512,0.498,2.11,1.659
1726.0,,,19035262.486,-1.349,1.159,2.699,4.2,0.497,0.48,2.05,1.592
1729.0,,,19058519.353,-1.349,1.182,2.699,4.2,0.528,0.52,2.177,1.742
1732.0,,,19083222.427,-1.349,1.143,2.699,4.2,0.53,0.51,2.183,1.699
1735.0,,,19106926.983,-1.349,1.162,2.699,4.2,0.537,0.53,2.215,1.774
1738.0,,,19130890.219,-1.349,1.161,2.699,4.2,0.534,0.503,2.201,1.675
1741.0,,,19153802.532,-1.349,1.179,2.699,4.2,0.508,0.493,2.095,1.642
1744.0,,,19172030.045,-1.349,1.163,2.699,4.2,0.502,0.482,2.071,1.603
1747.0,,,19194686.634,-1.349,1.164,2.699,4.2,0.509,0.502,2.102,1.676
1750.0,,,19217553.598,-1.349,1.161,2.699,4.2,0.506,0.48,2.087,1.594
1753.0,,,19239460.993,-1.349,1.15,2.699,4.2,0.481,0.468,1.987,1.552
1756.0,,,19260992.848,-1.349,1.181,2.699,4.2,0.47,0.449,1.941,1.485
1759.0,,,19282849.583,-1.349,1.151,2.699,4.2,0.493,0.484,2.034,1.612
1762.0,,,19304871.858,-1.349,1.154,2.699,4.2,0.485,0.46,2.001,1.522
1765.0,,,19326289.413,-1.349,1.15,2.699,4.2,0.47,0.46,1.943,1.524
1768.0,,,19347776.366,-1.349,1.159,2.699,4.2,0.471,0.45,1.944,1.49
1771.0,,,19364808.091,-1.349,0.675,2.699,4.194,0.267,0.298,1.084,0.995
1774.0,,,19383112.452,-1.349,1.178,2.699,4.2,0.524,0.471,2.163,1.568
1777.0,,,19404318.839,-1.349,1.139,2.699,4.2,0.457,0.445,1.889,1.473
1780.0,,,19426355.333,-1.349,1.202,2.699,4.2,0.457,0.476,1.902,1.587
1783.0,,,19444335.66,-1.349,1.144,2.699,4.2,0.481,0.456,1.989,1.509
1786.0,,,19466031.298,-1.349,1.144,2.699,4.2,0.471,0.47,1.946,1.562
1789.0,,,19488176.354,-1.349,1.158,2.699,4.2,0.484,0.458,1.999,1.516
1792.0,,,19509226.699,-1.349,1.143,2.699,4.2,0.452,0.442,1.868,1.463
1795.0,,,19530002.358,-1.349,1.153,2.699,4.2,0.449,0.434,1.857,1.434
1798.0,,,19550451.549,-1.349,1.146,2.699,4.2,0.443,0.445,1.834,1.472
1801.0,,,19571681.289,-1.349,1.145,2.699,4.2,0.467,0.447,1.93,1.482
1804.0,,,19591998.826,-1.349,1.155,2.699,4.2,0.434,0.426,1.795,1.408
1807.0,,,19612232.305,-1.349,1.161,2.699,4.2,0.438,0.424,1.814,1.401
1810.0,,,19632062.212,-1.349,1.158,2.699,4.2,0.422,0.426,1.748,1.407
1813.0,,,19646195.012,-1.349,1.163,2.699,4.2,0.475,0.442,1.96,1.454
1816.0,,,19667142.343,-1.349,1.145,2.699,4.2,0.464,0.457,1.918,1.512
1819.0,,,19684296.719,-1.349,1.14,2.699,4.2,0.465,0.437,1.919,1.441
1822.0,,,19699795.385,-1.349,0.675,2.699,4.194,0.216,0.257,0.883,0.857
1825.0,,,19720124.406,-1.349,1.162,2.699,4.2,0.424,0.412,1.755,1.357
1828.0,,,19739288.235,-1.349,1.159,2.699,4.2,0.401,0.395,1.661,1.3
1831.0,,,19759091.037,-1.349,1.136,2.699,4.2,0.431,0.425,1.784,1.406
1834.0,,,19778793.611,-1.349,1.154,2.699,4.2,0.412,0.388,1.708,1.276
1837.0,,,19797574.467,-1.349,1.138,2.699,4.2,0.404,0.391,1.674,1.288
1840.0,,,19816288.699,-1.349,1.138,2.699,4.2,0.397,0.381,1.646,1.253
1843.0,,,19834919.363,-1.349,1.14,2.699,4.2,0.405,0.402,1.678,1.326
1846.0,,,19854303.408,-1.349,1.144,2.699,4.2,0.42,0.398,1.739,1.314
1849.0,,,19872305.8,-1.349,1.127,2.699,4.2,0.37,0.36,1.534,1.18
1852.0,,,19889872.347,-1.349,1.132,2.699,4.2,0.368,0.359,1.525,1.178
1855.0,,,19907095.283,-1.349,1.132,2.699,4.2,0.354,0.341,1.471,1.117
1858.0,,,19924767.899,-1.349,1.132,2.699,4.2,0.383,0.379,1.586,1.249
1861.0,,,19943083.582,-1.349,1.146,2.699,4.2,0.393,0.364,1.629,1.195
1864.0,,,19963804.706,-1.349,1.132,2.699,4.2,0.416,0.393,1.722,1.293
1867.0,,,19982834.21,-1.349,1.122,2.699,4.2,0.398,0.399,1.649,1.312
1870.0,,,20002773.012,-1.349,1.13,2.699,4.2,0.42,0.404,1.741,1.332
1873.0,,,20021338.53,-1.349,1.137,2.699,4.2,0.373,0.37,1.549,1.214
1876.0,,,20039537.572,-1.349,1.114,2.699,4.2,0.38,0.365,1.577,1.2
1879.0,,,20057432.335,-1.349,1.122,2.699,4.2,0.368,0.354,1.529,1.161
1882.0,,,20075573.97,-1.349,1.126,2.699,4.2,0.385,0.379,1.595,1.246
1885.0,,,20094148.339,-1.349,1.124,2.699,4.2,0.391,0.365,1.62,1.2
1888.0,,,20111698.763,-1.349,1.125,2.699,4.2,0.362,0.355,1.504,1.163
1891.0,,,20129254.315,-1.349,1.13,2.699,4.2,0.367,0.352,1.522,1.154
1894.0,,,20145968.952,-1.349,1.142,2.699,4.2,0.338,0.327,1.403,1.068
1897.0,,,20163160.986,-1.349,1.151,2.699,4.2,0.367,0.364,1.525,1.194
1900.0,,,20181200.729,-1.349,1.127,2.699,4.2,0.378,0.372,1.567,1.223
1903.0,,,20199562.738,-1.349,1.123,2.699,4.2,0.386,0.377,1.602,1.24
1906.0,,,20218075.462,-1.349,1.136,2.699,4.2,0.39,0.381,1.618,1.254
1909.0,,,20236759.581,-1.35,1.133,2.699,4.2,0.393,0.384,1.629,1.265
1912.0,,,20256592.47,-1.349,1.18,2.699,4.2,0.38,0.348,1.587,1.135
1915.0,,,20273946.23,-1.349,1.101,2.699,4.2,0.345,0.347,1.434,1.132
1918.0,,,20291770.535,-1.349,1.123,2.699,4.2,0.364,0.356,1.514,1.163
1921.0,,,20308095.666,-1.349,1.116,2.699,4.2,0.316,0.303,1.314,0.987
1924.0,,,20320717.477,-1.349,1.158,2.699,4.2,0.364,0.302,1.512,0.984
1927.0,,,20336324.961,-1.349,1.108,2.699,4.2,0.31,0.3,1.289,0.978
1930.0,,,20351485.255,-1.349,1.095,2.699,4.2,0.298,0.29,1.242,0.945
1933.0,,,20367280.807,-1.349,1.116,2.699,4.2,0.326,0.321,1.354,1.047
1936.0,,,20383490.705,-1.349,1.132,2.699,4.2,0.333,0.302,1.384,0.986
1939.0,,,20398502.595,-1.349,1.102,2.699,4.2,0.293,0.286,1.221,0.93
1942.0,,,20413378.865,-1.349,1.119,2.699,4.2,0.298,0.289,1.242,0.941
1945.0,,,20428129.603,-1.349,1.117,2.699,4.2,0.291,0.282,1.211,0.919
1948.0,,,20442639.597,-1.349,1.114,2.699,4.2,0.286,0.294,1.189,0.956
1951.0,,,20458254.216,-1.35,1.124,2.699,4.2,0.321,0.318,1.337,1.037
1954.0,,,20474548.777,-1.35,1.138,2.699,4.2,0.332,0.327,1.38,1.068
1957.0,,,20491161.5,-1.35,1.15,2.699,4.2,0.34,0.333,1.412,1.086
1960.0,,,20507973.672,-1.35,1.125,2.699,4.2,0.345,0.333,1.433,1.088
1961.0,,,20513586.591,-1.35,1.125,2.699,4.2,0.341,0.337,1.415,1.102