File: Li-ion_Batteries/CALCE_CX2-37_prism_LCO_25C_0-100_0.5-0.5C_g_cycle_data.csv
Cycle_Index,Start_Time,End_Time,Test_Time (s),Min_Current (A),Max_Current (A),Min_Voltage (V),Max_Voltage (V),Charge_Capacity (Ah),Discharge_Capacity (Ah),Charge_Energy (Wh),Discharge_Energy (Wh)
1.0,,,13549.071,-1.35,1.172,2.699,4.2,1.373,1.366,5.512,4.899
3.0,,,40404.856,-1.35,1.165,2.699,4.2,1.369,1.365,5.464,4.915
5.0,,,67278.805,-1.35,1.174,2.699,4.2,1.364,1.363,5.452,4.906
7.0,,,93809.701,-1.35,1.161,2.699,4.2,1.36,1.356,5.425,4.883
9.0,,,120341.097,-1.35,1.161,2.699,4.2,1.347,1.346,5.385,4.84
11.0,,,146822.293,-1.35,1.161,2.699,4.2,1.34,1.34,5.355,4.814
13.0,,,173104.99,-1.35,1.158,2.699,4.2,1.344,1.346,5.363,4.856
15.0,,,199408.397,-1.35,1.157,2.699,4.2,1.335,1.334,5.335,4.797
17.0,,,225668.266,-1.35,1.157,2.699,4.2,1.33,1.33,5.318,4.781
19.0,,,248220.634,-1.35,0.675,2.699,4.197,1.133,1.138,4.48,4.055
21.0,,,274373.894,-1.35,1.15,2.699,4.2,1.331,1.327,5.315,4.77
23.0,,,300496.935,-1.35,1.154,2.699,4.2,1.323,1.324,5.289,4.758
25.0,,,326601.927,-1.35,1.152,2.699,4.2,1.32,1.325,5.28,4.772
27.0,,,352551.086,-1.35,1.148,2.699,4.2,1.325,1.328,5.288,4.791
29.0,,,378442.784,-1.35,1.143,2.699,4.2,1.327,1.328,5.293,4.794
31.0,,,404291.464,-1.35,1.141,2.699,4.2,1.326,1.328,5.286,4.796
33.0,,,430092.645,-1.35,1.143,2.699,4.2,1.325,1.327,5.282,4.794
35.0,,,455875.044,-1.35,1.142,2.699,4.2,1.324,1.326,5.277,4.791
37.0,,,481611.268,-1.35,1.139,2.699,4.2,1.323,1.325,5.273,4.791
39.0,,,507325.83,-1.35,1.138,2.699,4.2,1.322,1.324,5.269,4.787
41.0,,,533064.414,-1.35,1.142,2.699,4.2,1.318,1.313,5.256,4.732
43.0,,,555179.511,-1.35,1.146,2.699,4.2,1.312,1.309,5.243,4.712
45.0,,,580978.992,-1.35,1.144,2.699,4.2,1.305,1.308,5.216,4.708
47.0,,,606651.042,-1.35,1.141,2.699,4.2,1.311,1.314,5.232,4.746
49.0,,,632410.568,-1.35,1.143,2.699,4.2,1.303,1.302,5.21,4.684
51.0,,,658122.217,-1.35,1.141,2.699,4.2,1.299,1.298,5.195,4.665
53.0,,,683805.219,-1.35,1.137,2.699,4.2,1.305,1.306,5.213,4.713
55.0,,,710025.493,-1.35,1.163,2.699,4.199,1.336,1.336,5.34,4.803
57.0,,,736212.361,-1.35,1.148,2.699,4.2,1.337,1.337,5.331,4.822
59.0,,,762351.887,-1.349,1.15,2.699,4.2,1.323,1.323,5.287,4.755
61.0,,,788359.912,-1.349,1.154,2.699,4.2,1.32,1.316,5.275,4.723
63.0,,,814384.206,-1.35,1.145,2.699,4.199,1.313,1.312,5.248,4.712
65.0,,,840345.792,-1.35,1.143,2.699,4.199,1.306,1.304,5.227,4.674
67.0,,,866272.732,-1.35,1.141,2.699,4.199,1.301,1.301,5.208,4.659
69.0,,,892156.874,-1.35,1.145,2.699,4.199,1.296,1.298,5.189,4.65
71.0,,,914050.039,-1.35,0.675,2.699,4.198,1.081,1.085,4.284,3.838
73.0,,,939860.696,-1.35,1.142,2.699,4.199,1.291,1.291,5.169,4.622
75.0,,,965597.135,-1.35,1.146,2.699,4.199,1.287,1.287,5.153,4.605
77.0,,,991266.108,-1.35,1.141,2.699,4.199,1.288,1.288,5.157,4.616
79.0,,,1016916.738,-1.35,1.144,2.699,4.199,1.284,1.286,5.142,4.607
81.0,,,1042528.818,-1.35,1.139,2.699,4.199,1.283,1.284,5.136,4.605
83.0,,,1068113.949,-1.349,1.145,2.699,4.2,1.282,1.282,5.133,4.593
85.0,,,1093676.27,-1.349,1.139,2.699,4.199,1.278,1.279,5.118,4.585
87.0,,,1119212.897,-1.35,1.149,2.699,4.199,1.277,1.278,5.116,4.579
89.0,,,1144722.089,-1.35,1.136,2.699,4.199,1.276,1.276,5.111,4.572
91.0,,,1170197.674,-1.35,1.138,2.699,4.199,1.272,1.272,5.096,4.558
93.0,,,1195708.754,-1.349,1.138,2.699,4.199,1.263,1.265,5.067,4.522
95.0,,,1214290.867,0.0,1.143,3.286,4.199,1.05,0.0,4.171,0.0
97.0,,,1234041.585,-1.349,1.143,2.699,4.199,1.266,1.268,5.073,4.546
99.0,,,1259364.021,-1.35,1.134,2.699,4.199,1.267,1.274,5.073,4.578
101.0,,,1284639.206,-1.35,1.13,2.699,4.199,1.269,1.268,5.075,4.55
103.0,,,1309957.301,-1.35,1.137,2.699,4.199,1.263,1.267,5.06,4.545
105.0,,,1335254.664,-1.35,1.13,2.699,4.199,1.26,1.263,5.047,4.524
107.0,,,1360423.474,-1.35,1.135,2.699,4.199,1.267,1.27,5.067,4.567
109.0,,,1385666.403,-1.35,1.13,2.699,4.199,1.258,1.259,5.04,4.511
111.0,,,1410883.642,-1.35,1.136,2.699,4.199,1.255,1.257,5.027,4.5
113.0,,,1436045.798,-1.35,1.129,2.699,4.199,1.258,1.263,5.035,4.536
115.0,,,1461184.428,-1.35,1.133,2.699,4.199,1.257,1.253,5.033,4.485
117.0,,,1486328.532,-1.35,1.13,2.699,4.199,1.249,1.252,5.005,4.482
119.0,,,1511477.506,-1.35,1.128,2.699,4.199,1.246,1.252,4.997,4.485
121.0,,,1536498.205,-1.35,1.126,2.699,4.199,1.253,1.256,5.013,4.511
123.0,,,1561478.747,-1.35,1.124,2.699,4.2,1.258,1.259,5.03,4.528
125.0,,,1586421.858,-1.35,1.124,2.699,4.2,1.257,1.26,5.025,4.535
127.0,,,1611339.086,-1.35,1.128,2.699,4.2,1.259,1.261,5.033,4.54
129.0,,,1636249.075,-1.35,1.123,2.699,4.2,1.259,1.261,5.031,4.543
131.0,,,1661136.582,-1.35,1.12,2.699,4.2,1.259,1.261,5.029,4.545
133.0,,,1686008.913,-1.35,1.122,2.699,4.2,1.258,1.261,5.026,4.545
135.0,,,1710866.606,-1.35,1.125,2.699,4.2,1.258,1.257,5.026,4.528
137.0,,,1735803.792,-1.35,1.13,2.699,4.199,1.243,1.244,4.979,4.461
139.0,,,1760702.285,-1.35,1.138,2.699,4.199,1.242,1.241,4.975,4.447
141.0,,,1781736.872,-1.35,1.124,2.699,4.199,1.25,1.251,4.999,4.5
143.0,,,1806601.699,-1.35,1.123,2.699,4.199,1.247,1.24,4.989,4.445
145.0,,,1831477.094,-1.35,1.13,2.699,4.199,1.238,1.24,4.96,4.446
147.0,,,1852825.702,-1.35,0.675,2.699,4.199,1.047,1.055,4.154,3.73
149.0,,,1878112.852,-1.35,1.133,2.699,4.2,1.271,1.272,5.082,4.574
151.0,,,1903353.635,-1.35,1.139,2.699,4.199,1.257,1.258,5.035,4.506
153.0,,,1928519.184,-1.35,1.144,2.699,4.199,1.252,1.255,5.015,4.494
155.0,,,1953633.222,-1.35,1.133,2.699,4.2,1.256,1.26,5.026,4.529
157.0,,,1978674.352,-1.35,1.128,2.699,4.199,1.254,1.249,5.019,4.47
159.0,,,2003717.532,-1.349,1.134,2.699,4.199,1.245,1.247,4.989,4.467
161.0,,,2028759.455,-1.35,1.132,2.699,4.199,1.242,1.248,4.978,4.473
163.0,,,2053632.874,-1.35,1.128,2.699,4.2,1.248,1.253,4.993,4.503
165.0,,,2078468.095,-1.35,1.131,2.699,4.2,1.247,1.252,4.988,4.506
167.0,,,2103273.036,-1.349,1.127,2.699,4.2,1.25,1.253,4.996,4.511
169.0,,,2128060.328,-1.35,1.127,2.699,4.2,1.249,1.253,4.993,4.511
171.0,,,2152807.529,-1.35,1.124,2.699,4.2,1.248,1.252,4.99,4.508
173.0,,,2177545.651,-1.349,1.122,2.699,4.2,1.248,1.251,4.988,4.508
175.0,,,2202270.703,-1.35,1.124,2.699,4.2,1.248,1.251,4.985,4.509
177.0,,,2226954.094,-1.35,1.118,2.699,4.2,1.25,1.25,4.992,4.507
179.0,,,2251707.977,-1.35,1.127,2.699,4.199,1.232,1.236,4.932,4.436
181.0,,,2276427.272,-1.35,1.123,2.699,4.199,1.23,1.232,4.928,4.414
183.0,,,2301188.493,-1.35,1.125,2.699,4.2,1.235,1.24,4.942,4.462
185.0,,,2325860.602,-1.35,1.126,2.699,4.199,1.231,1.228,4.928,4.395
187.0,,,2350538.904,-1.35,1.134,2.699,4.199,1.223,1.227,4.899,4.395
189.0,,,2375236.975,-1.35,1.123,2.699,4.199,1.223,1.23,4.902,4.415
191.0,,,2399794.618,-1.35,1.129,2.699,4.2,1.232,1.234,4.93,4.439
193.0,,,2424400.596,-1.35,1.124,2.699,4.199,1.22,1.225,4.89,4.388
195.0,,,2448945.066,-1.35,1.123,2.699,4.199,1.219,1.224,4.885,4.384
197.0,,,2474095.522,-1.35,1.135,2.699,4.199,1.25,1.255,5.007,4.509
199.0,,,2499072.764,-1.35,1.124,2.699,4.2,1.256,1.254,5.021,4.509
201.0,,,2524055.281,-1.35,1.132,2.699,4.199,1.242,1.245,4.975,4.467
203.0,,,2548969.423,-1.35,1.123,2.699,4.2,1.25,1.254,4.996,4.517
205.0,,,2573789.375,-1.35,1.126,2.699,4.2,1.249,1.252,4.991,4.512
207.0,,,2598565.156,-1.35,1.13,2.699,4.2,1.248,1.251,4.986,4.511
209.0,,,2623302.881,-1.35,1.121,2.699,4.2,1.247,1.251,4.982,4.513
211.0,,,2648001.042,-1.35,1.122,2.699,4.2,1.246,1.25,4.977,4.509
213.0,,,2672669.227,-1.35,1.117,2.699,4.2,1.246,1.249,4.974,4.506
215.0,,,2697320.347,-1.35,1.117,2.699,4.2,1.245,1.248,4.971,4.504
217.0,,,2721946.029,-1.35,1.118,2.699,4.2,1.244,1.247,4.969,4.501
219.0,,,2746546.421,-1.35,1.123,2.699,4.2,1.244,1.246,4.966,4.498
221.0,,,2771124.652,-1.35,1.13,2.699,4.2,1.232,1.232,4.926,4.424
223.0,,,2795705.504,-1.35,1.126,2.699,4.2,1.227,1.228,4.908,4.408
225.0,,,2820298.017,-1.35,1.126,2.699,4.2,1.224,1.232,4.905,4.433
227.0,,,2844800.095,-1.35,1.119,2.699,4.2,1.234,1.232,4.933,4.436
229.0,,,2869357.698,-1.349,1.125,2.699,4.199,1.219,1.223,4.88,4.388
231.0,,,2893877.222,-1.35,1.124,2.699,4.199,1.221,1.218,4.889,4.367
233.0,,,2918422.921,-1.35,1.117,2.699,4.2,1.224,1.228,4.894,4.42
235.0,,,2942894.748,-1.349,1.122,2.699,4.199,1.218,1.215,4.877,4.351
237.0,,,2967357.933,-1.35,1.125,2.699,4.199,1.213,1.213,4.858,4.343
239.0,,,2991893.411,-1.35,1.121,2.699,4.199,1.212,1.217,4.859,4.368
241.0,,,3016291.962,-1.35,1.127,2.699,4.2,1.221,1.221,4.885,4.389
243.0,,,3040738.927,-1.35,1.121,2.699,4.199,1.208,1.21,4.844,4.334
245.0,,,3065144.861,-1.349,1.128,2.699,4.199,1.208,1.211,4.841,4.338
247.0,,,3089995.794,-1.35,1.135,2.699,4.199,1.226,1.228,4.916,4.395
249.0,,,3102681.14,-1.35,1.149,2.699,4.199,1.1,1.227,4.455,4.388
251.0,,,3127640.387,-1.35,1.141,2.699,4.199,1.235,1.241,4.948,4.455
253.0,,,3152517.656,-1.35,1.129,2.699,4.199,1.235,1.228,4.946,4.388
255.0,,,3177394.664,-1.35,1.134,2.699,4.199,1.222,1.224,4.903,4.371
257.0,,,3189697.882,-1.35,0.31,2.699,4.199,0.03,1.23,0.129,4.395
259.0,,,3214437.758,-1.35,1.134,2.699,4.199,1.216,1.22,4.88,4.359
261.0,,,3239190.812,-1.35,1.131,2.699,4.199,1.224,1.23,4.901,4.415
263.0,,,3263879.291,-1.35,1.129,2.699,4.199,1.223,1.216,4.899,4.346
265.0,,,3288568.965,-1.35,1.131,2.699,4.199,1.214,1.213,4.868,4.331
267.0,,,3309148.343,-1.35,0.675,2.699,4.197,0.992,0.999,3.938,3.519
269.0,,,3333743.312,-1.35,1.124,2.699,4.199,1.217,1.219,4.874,4.369
271.0,,,3358263.298,-1.35,1.135,2.699,4.199,1.202,1.203,4.822,4.292
273.0,,,3382748.236,-1.35,1.141,2.699,4.199,1.199,1.203,4.813,4.292
275.0,,,3407184.923,-1.35,1.128,2.699,4.199,1.2,1.209,4.812,4.329
277.0,,,3431565.458,-1.35,1.13,2.699,4.199,1.21,1.211,4.846,4.343
279.0,,,3455911.472,-1.35,1.132,2.699,4.2,1.209,1.212,4.842,4.349
281.0,,,3480206.732,-1.35,1.12,2.699,4.2,1.211,1.213,4.849,4.356
283.0,,,3504489.466,-1.35,1.124,2.699,4.2,1.211,1.213,4.848,4.359
285.0,,,3528762.546,-1.35,1.12,2.699,4.2,1.211,1.213,4.846,4.356
287.0,,,3553018.05,-1.35,1.12,2.699,4.2,1.211,1.213,4.844,4.361
289.0,,,3577270.131,-1.35,1.118,2.699,4.2,1.211,1.214,4.842,4.368
291.0,,,3601418.275,-1.35,1.121,2.699,4.2,1.212,1.205,4.847,4.324
293.0,,,3625671.488,-1.35,1.123,2.699,4.199,1.194,1.196,4.788,4.277
295.0,,,3649896.303,-1.35,1.129,2.699,4.199,1.19,1.192,4.772,4.257
297.0,,,3674154.456,-1.35,1.121,2.699,4.2,1.202,1.204,4.813,4.323
299.0,,,3698358.499,-1.349,1.124,2.699,4.199,1.193,1.19,4.784,4.247
301.0,,,3722565.707,-1.35,1.127,2.699,4.199,1.188,1.189,4.768,4.248
303.0,,,3746825.236,-1.35,1.135,2.699,4.199,1.187,1.193,4.767,4.269
305.0,,,3770978.021,-1.35,1.121,2.699,4.2,1.197,1.197,4.796,4.291
307.0,,,3795447.142,-1.35,1.145,2.699,4.199,1.173,1.204,4.735,4.296
309.0,,,3816025.309,-1.35,0.675,2.699,4.198,0.985,0.994,3.914,3.503
311.0,,,3840649.036,-1.35,1.142,2.699,4.2,1.211,1.214,4.853,4.351
313.0,,,3865223.26,-1.35,1.139,2.699,4.199,1.198,1.199,4.81,4.272
315.0,,,3889738.657,-1.35,1.132,2.699,4.199,1.196,1.196,4.802,4.261
317.0,,,3914191.349,-1.35,1.13,2.699,4.199,1.196,1.203,4.798,4.303
319.0,,,3938578.586,-1.35,1.137,2.699,4.2,1.203,1.205,4.821,4.315
321.0,,,3962923.856,-1.35,1.127,2.699,4.2,1.202,1.205,4.816,4.321
323.0,,,3987215.209,-1.35,1.133,2.699,4.2,1.204,1.205,4.822,4.323
325.0,,,4011474.075,-1.35,1.123,2.699,4.2,1.203,1.204,4.819,4.321
327.0,,,4035708.757,-1.35,1.126,2.699,4.2,1.203,1.204,4.816,4.319
329.0,,,4059925.112,-1.35,1.123,2.699,4.2,1.202,1.204,4.813,4.32
331.0,,,4080454.375,-1.35,1.129,2.699,4.2,1.206,1.204,4.826,4.321
333.0,,,4104654.769,-1.35,1.124,2.699,4.2,1.201,1.199,4.809,4.302
335.0,,,4128875.249,-1.35,1.133,2.699,4.199,1.182,1.184,4.743,4.226
337.0,,,4153064.96,-1.35,1.139,2.699,4.199,1.181,1.18,4.742,4.208
339.0,,,4177302.373,-1.35,1.128,2.699,4.199,1.186,1.192,4.756,4.27
341.0,,,4201456.596,-1.35,1.13,2.699,4.199,1.185,1.18,4.755,4.206
343.0,,,4225597.196,-1.35,1.133,2.699,4.199,1.176,1.176,4.723,4.191
345.0,,,4249746.987,-1.35,1.135,2.699,4.199,1.173,1.18,4.71,4.21
347.0,,,4273808.636,-1.35,1.131,2.699,4.199,1.184,1.188,4.748,4.256
349.0,,,4297934.073,-1.349,1.132,2.699,4.199,1.173,1.173,4.713,4.178
351.0,,,4322002.637,-1.35,1.126,2.699,4.199,1.169,1.171,4.696,4.172
353.0,,,4346047.109,-1.35,1.127,2.699,4.2,1.173,1.182,4.707,4.226
355.0,,,4370064.188,-1.35,1.134,2.699,4.199,1.176,1.171,4.716,4.174
357.0,,,4394159.456,-1.35,1.139,2.699,4.199,1.168,1.17,4.7,4.169
359.0,,,4418204.702,-1.35,1.134,2.699,4.199,1.164,1.165,4.678,4.144
361.0,,,4442179.985,-1.35,1.145,2.699,4.199,1.176,1.179,4.719,4.217
363.0,,,4466150.824,-1.349,1.142,2.699,4.199,1.164,1.165,4.678,4.143
365.0,,,4490150.735,-1.35,1.137,2.699,4.199,1.162,1.164,4.673,4.141
367.0,,,4514105.677,-1.35,1.133,2.699,4.199,1.164,1.172,4.678,4.186
369.0,,,4534217.026,-1.35,1.129,2.699,4.199,1.179,1.175,4.73,4.202
371.0,,,4558195.07,-1.35,1.126,2.699,4.199,1.175,1.177,4.713,4.211
373.0,,,4582162.454,-1.35,1.12,2.699,4.199,1.178,1.18,4.722,4.227
375.0,,,4606113.5,-1.35,1.127,2.699,4.2,1.178,1.181,4.72,4.234
377.0,,,4630058.301,-1.35,1.122,2.699,4.2,1.181,1.182,4.732,4.239
379.0,,,4653989.643,-1.35,1.123,2.699,4.2,1.181,1.183,4.731,4.242
381.0,,,4677912.838,-1.35,1.125,2.699,4.2,1.181,1.184,4.73,4.248
383.0,,,4701826.043,-1.35,1.122,2.699,4.2,1.181,1.184,4.729,4.249
385.0,,,4725712.844,-1.35,1.135,2.699,4.199,1.164,1.165,4.676,4.153
387.0,,,4749626.934,-1.35,1.134,2.699,4.199,1.161,1.163,4.662,4.144
389.0,,,4773524.368,-1.35,1.133,2.699,4.199,1.162,1.172,4.67,4.191
391.0,,,4797310.53,-1.349,1.122,2.699,4.2,1.171,1.167,4.694,4.168
393.0,,,4821224.647,-1.35,1.144,2.699,4.199,1.159,1.163,4.656,4.145
395.0,,,4845099.295,-1.349,1.133,2.699,4.199,1.159,1.159,4.656,4.127
397.0,,,4869016.776,-1.35,1.125,2.699,4.2,1.168,1.172,4.687,4.194
399.0,,,4892877.226,-1.35,1.128,2.699,4.199,1.163,1.16,4.668,4.133
401.0,,,4916734.467,-1.35,1.141,2.699,4.199,1.158,1.161,4.652,4.139
403.0,,,4940623.089,-1.35,1.124,2.699,4.199,1.158,1.164,4.654,4.153
405.0,,,4964414.362,-1.35,1.124,2.699,4.2,1.167,1.172,4.681,4.196
407.0,,,4988412.373,-1.35,1.137,2.699,4.199,1.151,1.164,4.642,4.142
409.0,,,5012381.418,-1.35,1.134,2.699,4.199,1.164,1.163,4.674,4.141
411.0,,,5036367.898,-1.35,1.138,2.699,4.199,1.155,1.158,4.645,4.114
413.0,,,5060302.843,-1.349,1.14,2.699,4.199,1.157,1.158,4.652,4.119
415.0,,,5084230.462,-1.349,1.13,2.699,4.199,1.153,1.154,4.637,4.103
417.0,,,5108084.413,-1.35,1.125,2.699,4.199,1.162,1.166,4.664,4.165
419.0,,,5131937.17,-1.35,1.125,2.699,4.2,1.165,1.167,4.673,4.173
421.0,,,5155751.796,-1.35,1.129,2.699,4.199,1.164,1.168,4.671,4.178
423.0,,,5168326.972,-1.35,0.334,2.699,4.199,0.032,1.175,0.134,4.205
425.0,,,5191950.306,-1.35,1.135,2.699,4.2,1.161,1.169,4.658,4.19
427.0,,,5215657.142,-1.35,1.13,2.699,4.2,1.168,1.167,4.682,4.181
429.0,,,5239400.962,-1.35,1.128,2.699,4.199,1.159,1.163,4.65,4.16
431.0,,,5263114.449,-1.35,1.121,2.699,4.2,1.164,1.168,4.669,4.185
433.0,,,5286834.527,-1.35,1.13,2.699,4.2,1.168,1.171,4.68,4.201
435.0,,,5310564.8,-1.35,1.134,2.699,4.199,1.166,1.164,4.672,4.165
437.0,,,5334260.023,-1.35,1.125,2.699,4.199,1.161,1.165,4.656,4.173
439.0,,,5357940.772,-1.35,1.126,2.699,4.199,1.161,1.165,4.655,4.17
441.0,,,5381615.383,-1.35,1.122,2.699,4.2,1.167,1.169,4.677,4.194
443.0,,,5405272.552,-1.35,1.121,2.699,4.199,1.157,1.161,4.643,4.152
445.0,,,5428934.881,-1.349,1.123,2.699,4.199,1.157,1.16,4.64,4.152
447.0,,,5452573.679,-1.35,1.138,2.699,4.2,1.157,1.164,4.641,4.17
449.0,,,5476165.814,-1.35,1.119,2.699,4.2,1.162,1.162,4.657,4.161
451.0,,,5499786.088,-1.35,1.123,2.699,4.199,1.155,1.159,4.635,4.147
453.0,,,5523378.286,-1.35,1.127,2.699,4.199,1.158,1.159,4.645,4.15
455.0,,,5547031.114,-1.35,1.12,2.699,4.2,1.162,1.165,4.658,4.179
457.0,,,5570643.143,-1.35,1.124,2.699,4.2,1.165,1.167,4.669,4.188
459.0,,,5594252.139,-1.35,1.125,2.699,4.2,1.165,1.168,4.668,4.191
461.0,,,5617866.208,-1.35,1.128,2.699,4.2,1.168,1.17,4.68,4.204
463.0,,,5641489.104,-1.35,1.123,2.699,4.2,1.169,1.171,4.679,4.207
465.0,,,5665127.264,-1.35,1.124,2.699,4.2,1.169,1.171,4.68,4.209
467.0,,,5688736.419,-1.35,1.121,2.699,4.2,1.169,1.171,4.679,4.209
469.0,,,5712358.511,-1.35,1.12,2.699,4.2,1.169,1.171,4.678,4.211
471.0,,,5735889.229,-1.35,1.124,2.699,4.2,1.167,1.163,4.67,4.173
473.0,,,5759623.229,-1.35,1.13,2.699,4.2,1.152,1.165,4.638,4.173
475.0,,,5783429.951,-1.35,1.129,2.699,4.2,1.163,1.167,4.665,4.183
477.0,,,5807143.862,-1.35,1.125,2.699,4.2,1.167,1.169,4.677,4.196
479.0,,,5827089.687,-1.35,1.128,2.699,4.2,1.164,1.16,4.67,4.151
481.0,,,5850755.563,-1.35,1.127,2.699,4.2,1.159,1.161,4.646,4.161
483.0,,,5874398.004,-1.35,1.131,2.699,4.2,1.158,1.165,4.645,4.182
485.0,,,5897969.082,-1.35,1.124,2.699,4.2,1.164,1.161,4.661,4.164
487.0,,,5921580.462,-1.35,1.125,2.699,4.2,1.154,1.16,4.629,4.158
489.0,,,5945148.427,-1.35,1.12,2.699,4.2,1.157,1.158,4.638,4.149
491.0,,,5968760.663,-1.35,1.12,2.699,4.2,1.16,1.164,4.649,4.18
493.0,,,5992323.623,-1.35,1.131,2.699,4.2,1.157,1.154,4.639,4.134
495.0,,,6015868.456,-1.35,1.123,2.699,4.2,1.153,1.155,4.623,4.136
497.0,,,6039390.918,-1.35,1.127,2.699,4.2,1.149,1.154,4.609,4.134
499.0,,,6062899.699,-1.35,1.122,2.699,4.2,1.159,1.161,4.643,4.171
501.0,,,6086416.001,-1.35,1.13,2.699,4.2,1.149,1.15,4.61,4.117
503.0,,,6109906.652,-1.35,1.124,2.699,4.2,1.148,1.153,4.605,4.129
505.0,,,6133381.035,-1.35,1.132,2.699,4.2,1.148,1.157,4.605,4.15
507.0,,,6156880.795,-1.35,1.122,2.699,4.2,1.155,1.159,4.629,4.161
509.0,,,6176732.755,-1.35,1.124,2.699,4.2,1.162,1.159,4.657,4.162
511.0,,,6200218.74,-1.35,1.125,2.699,4.2,1.158,1.161,4.64,4.171
513.0,,,6223702.723,-1.35,1.122,2.699,4.2,1.158,1.161,4.639,4.171
515.0,,,6247177.666,-1.35,1.122,2.699,4.2,1.158,1.161,4.637,4.17
517.0,,,6270638.327,-1.35,1.117,2.699,4.2,1.158,1.16,4.637,4.17
519.0,,,6294095.791,-1.35,1.119,2.699,4.2,1.157,1.161,4.635,4.172
521.0,,,6317542.777,-1.35,1.12,2.699,4.2,1.157,1.161,4.635,4.172
523.0,,,6341143.034,-1.35,1.134,2.699,4.2,1.144,1.158,4.606,4.147
525.0,,,6364869.555,-1.35,1.133,2.699,4.2,1.157,1.162,4.644,4.169
527.0,,,6384805.474,-1.35,1.128,2.699,4.2,1.168,1.164,4.681,4.179
529.0,,,6408402.43,-1.35,1.13,2.699,4.2,1.15,1.151,4.614,4.121
531.0,,,6431932.122,-1.35,1.13,2.699,4.2,1.148,1.152,4.606,4.125
533.0,,,6455397.503,-1.35,1.136,2.699,4.2,1.15,1.157,4.613,4.154
535.0,,,6478802.213,-1.35,1.126,2.699,4.2,1.156,1.153,4.631,4.136
537.0,,,6502216.415,-1.35,1.126,2.699,4.2,1.146,1.149,4.596,4.118
539.0,,,6525605.21,-1.35,1.131,2.699,4.2,1.146,1.147,4.595,4.107
541.0,,,6549056.331,-1.35,1.123,2.699,4.2,1.15,1.155,4.607,4.147
543.0,,,6572459.745,-1.35,1.13,2.699,4.2,1.147,1.144,4.599,4.095
545.0,,,6595830.994,-1.35,1.131,2.699,4.2,1.141,1.145,4.577,4.101
547.0,,,6619177.23,-1.35,1.132,2.699,4.199,1.128,1.132,4.535,4.035
549.0,,,6642525.584,-1.35,1.136,2.699,4.2,1.145,1.147,4.59,4.115
551.0,,,6665812.53,-1.349,1.134,2.699,4.199,1.127,1.125,4.53,4.008
553.0,,,6689083.534,-1.35,1.137,2.699,4.199,1.12,1.123,4.502,3.999
555.0,,,6712377.475,-1.35,1.143,2.699,4.2,1.124,1.134,4.521,4.054
557.0,,,6735636.613,-1.35,1.126,2.699,4.2,1.136,1.14,4.556,4.084
559.0,,,6758918.192,-1.35,1.123,2.699,4.2,1.139,1.143,4.569,4.097
561.0,,,6782207.619,-1.35,1.126,2.699,4.2,1.143,1.146,4.58,4.112
563.0,,,6805485.137,-1.35,1.123,2.699,4.2,1.143,1.146,4.58,4.112
565.0,,,6828774.435,-1.35,1.128,2.699,4.2,1.143,1.145,4.581,4.109
567.0,,,6852052.708,-1.35,1.126,2.699,4.2,1.143,1.145,4.58,4.109
569.0,,,6875336.184,-1.35,1.127,2.699,4.2,1.143,1.145,4.58,4.113
571.0,,,6898623.929,-1.35,1.12,2.699,4.2,1.143,1.146,4.579,4.114
573.0,,,6921995.623,-1.35,1.135,2.699,4.199,1.117,1.126,4.511,4.013
575.0,,,6945495.449,-1.35,1.15,2.699,4.2,1.126,1.137,4.529,4.067
577.0,,,6968878.362,-1.35,1.131,2.699,4.2,1.139,1.138,4.567,4.077
579.0,,,6992203.727,-1.35,1.136,2.699,4.199,1.12,1.122,4.505,3.995
581.0,,,7015449.032,-1.35,1.134,2.699,4.199,1.118,1.119,4.496,3.986
583.0,,,7038699.617,-1.35,1.135,2.699,4.2,1.124,1.131,4.514,4.043
585.0,,,7061918.22,-1.35,1.124,2.699,4.199,1.126,1.118,4.52,3.984
587.0,,,7085112.173,-1.35,1.141,2.699,4.199,1.11,1.112,4.465,3.952
589.0,,,7096695.775,-1.35,1.072,2.699,4.199,0.3,1.118,1.256,3.98
591.0,,,7119746.611,-1.35,1.13,2.699,4.199,1.107,1.109,4.455,3.947
593.0,,,7142901.409,-1.35,1.125,2.699,4.2,1.118,1.125,4.49,4.023
595.0,,,7166030.927,-1.35,1.124,2.699,4.199,1.12,1.112,4.499,3.959
597.0,,,7189134.139,-1.349,1.127,2.699,4.199,1.108,1.109,4.458,3.946
599.0,,,7212219.944,-1.35,1.131,2.699,4.199,1.104,1.105,4.443,3.927
601.0,,,7235344.009,-1.35,1.129,2.699,4.2,1.118,1.122,4.492,4.011
603.0,,,7258371.913,-1.35,1.135,2.699,4.199,1.108,1.106,4.456,3.933
605.0,,,7281455.001,-1.35,1.13,2.699,4.199,1.101,1.103,4.432,3.919
607.0,,,7304601.001,-1.35,1.133,2.699,4.199,1.099,1.108,4.425,3.945
609.0,,,7327673.497,-1.35,1.133,2.699,4.2,1.113,1.117,4.474,3.988
611.0,,,7350789.729,-1.35,1.139,2.699,4.199,1.1,1.105,4.427,3.932
613.0,,,7373823.643,-1.35,1.139,2.699,4.199,1.103,1.106,4.437,3.939
615.0,,,7393005.677,-1.35,1.134,2.699,4.199,1.114,1.111,4.483,3.962
617.0,,,7416065.593,-1.35,1.127,2.699,4.2,1.113,1.115,4.473,3.984
619.0,,,7439121.407,-1.35,1.137,2.699,4.2,1.103,1.107,4.437,3.943
621.0,,,7462147.867,-1.35,1.134,2.699,4.199,1.103,1.107,4.435,3.941
623.0,,,7485184.692,-1.35,1.132,2.699,4.2,1.105,1.113,4.442,3.975
625.0,,,7508230.062,-1.35,1.13,2.699,4.2,1.112,1.116,4.469,3.986
627.0,,,7531287.425,-1.35,1.133,2.699,4.2,1.113,1.116,4.47,3.99
629.0,,,7554365.577,-1.35,1.135,2.699,4.2,1.113,1.118,4.471,3.998
631.0,,,7577437.307,-1.35,1.132,2.699,4.2,1.116,1.119,4.482,4.004
633.0,,,7600500.526,-1.35,1.14,2.699,4.2,1.116,1.119,4.482,4.004
635.0,,,7623549.184,-1.35,1.126,2.699,4.2,1.116,1.119,4.48,4.003
637.0,,,7646601.936,-1.35,1.14,2.699,4.2,1.116,1.117,4.48,3.994
639.0,,,7669964.494,-1.35,1.135,2.699,4.199,1.099,1.11,4.443,3.953
641.0,,,7693349.385,-1.349,1.139,2.699,4.199,1.109,1.115,4.461,3.975
643.0,,,7716567.326,-1.35,1.129,2.699,4.2,1.119,1.121,4.496,4.005
645.0,,,7739740.756,-1.35,1.139,2.699,4.199,1.105,1.108,4.444,3.943
647.0,,,7762844.501,-1.35,1.131,2.699,4.199,1.104,1.106,4.439,3.936
649.0,,,7785903.057,-1.35,1.142,2.699,4.2,1.105,1.112,4.444,3.971
651.0,,,7808877.313,-1.35,1.13,2.699,4.2,1.11,1.106,4.462,3.942
653.0,,,7831903.515,-1.35,1.132,2.699,4.199,1.098,1.104,4.419,3.93
655.0,,,7854910.628,-1.35,1.133,2.699,4.199,1.098,1.101,4.416,3.919
657.0,,,7877962.253,-1.35,1.136,2.699,4.2,1.104,1.108,4.438,3.957
659.0,,,7900975.304,-1.35,1.14,2.699,4.199,1.102,1.099,4.431,3.911
661.0,,,7923935.455,-1.35,1.133,2.699,4.199,1.096,1.098,4.411,3.909
663.0,,,7946883.877,-1.349,1.15,2.699,4.199,1.093,1.094,4.399,3.888
665.0,,,7969839.397,-1.35,1.145,2.699,4.2,1.1,1.104,4.422,3.939
667.0,,,7992707.627,-1.35,1.139,2.699,4.199,1.092,1.092,4.395,3.883
669.0,,,8015610.675,-1.35,1.14,2.699,4.199,1.091,1.094,4.392,3.893
671.0,,,8038575.762,-1.35,1.145,2.699,4.199,1.09,1.097,4.387,3.905
673.0,,,8061483.433,-1.35,1.146,2.699,4.2,1.099,1.101,4.417,3.927
675.0,,,8084399.491,-1.35,1.135,2.699,4.2,1.099,1.102,4.417,3.932
677.0,,,8107302.948,-1.35,1.136,2.699,4.2,1.098,1.103,4.414,3.938
679.0,,,8130189.365,-1.35,1.134,2.699,4.2,1.101,1.104,4.425,3.942
681.0,,,8153070.323,-1.35,1.141,2.699,4.2,1.101,1.104,4.425,3.946
683.0,,,8175952.239,-1.35,1.139,2.699,4.2,1.101,1.105,4.424,3.949
685.0,,,8198825.654,-1.35,1.145,2.699,4.2,1.101,1.105,4.423,3.952
687.0,,,8221672.266,-1.35,1.13,2.699,4.2,1.104,1.106,4.433,3.954
689.0,,,8244896.012,-1.35,1.159,2.699,4.199,1.085,1.084,4.391,3.843
691.0,,,8268079.502,-1.35,1.159,2.699,4.199,1.083,1.09,4.367,3.871
693.0,,,8291076.832,-1.35,1.141,2.699,4.2,1.093,1.098,4.399,3.913
695.0,,,8314047.237,-1.35,1.14,2.699,4.199,1.085,1.087,4.371,3.864
697.0,,,8336961.204,-1.35,1.137,2.699,4.199,1.087,1.089,4.377,3.872
699.0,,,8359787.449,-1.35,1.136,2.699,4.2,1.086,1.093,4.371,3.893
701.0,,,8382543.963,-1.35,1.137,2.699,4.2,1.089,1.089,4.379,3.874
703.0,,,8405336.721,-1.35,1.145,2.699,4.199,1.083,1.085,4.359,3.86
705.0,,,8428114.139,-1.35,1.14,2.699,4.199,1.082,1.086,4.356,3.863
707.0,,,8450935.535,-1.35,1.138,2.699,4.2,1.085,1.09,4.367,3.886
709.0,,,8473728.136,-1.349,1.135,2.699,4.199,1.085,1.082,4.364,3.844
711.0,,,8492488.952,-1.349,1.146,2.699,4.199,1.085,1.08,4.369,3.836
713.0,,,8515258.47,-1.349,1.156,2.699,4.199,1.078,1.079,4.342,3.832
715.0,,,8538055.754,-1.35,1.135,2.699,4.2,1.084,1.087,4.361,3.875
717.0,,,8560815.097,-1.35,1.135,2.699,4.199,1.084,1.085,4.362,3.862
719.0,,,8583545.982,-1.35,1.137,2.699,4.199,1.08,1.085,4.346,3.865
721.0,,,8606253.745,-1.35,1.145,2.699,4.2,1.083,1.085,4.356,3.866
723.0,,,8628969.33,-1.35,1.136,2.699,4.2,1.086,1.091,4.367,3.897
725.0,,,8647764.159,-1.35,0.675,2.699,4.197,0.884,0.898,3.518,3.168
727.0,,,8670624.83,-1.35,1.132,2.699,4.2,1.091,1.094,4.384,3.909
729.0,,,8693388.05,-1.35,1.129,2.699,4.2,1.094,1.095,4.395,3.917
731.0,,,8716158.275,-1.35,1.135,2.699,4.2,1.094,1.096,4.394,3.921
733.0,,,8738900.433,-1.35,1.137,2.699,4.2,1.093,1.096,4.392,3.922
735.0,,,8761634.263,-1.35,1.131,2.699,4.2,1.093,1.096,4.392,3.922
737.0,,,8784369.042,-1.35,1.141,2.699,4.2,1.093,1.097,4.392,3.925
739.0,,,8807408.639,-1.35,1.135,2.699,4.2,1.082,1.094,4.373,3.906
741.0,,,8830384.842,-1.35,1.14,2.699,4.2,1.094,1.097,4.399,3.916
743.0,,,8853261.954,-1.35,1.135,2.699,4.2,1.1,1.102,4.418,3.944
745.0,,,8876065.928,-1.35,1.131,2.699,4.2,1.092,1.092,4.389,3.899
747.0,,,8894886.138,-1.35,0.675,2.699,4.198,0.884,0.897,3.517,3.165
749.0,,,8917791.42,-1.35,1.137,2.699,4.2,1.088,1.095,4.376,3.913
751.0,,,8940558.942,-1.35,1.136,2.699,4.2,1.098,1.1,4.409,3.939
753.0,,,8963273.036,-1.35,1.138,2.699,4.2,1.09,1.09,4.38,3.894
755.0,,,8985953.599,-1.35,1.137,2.699,4.2,1.086,1.088,4.364,3.885
757.0,,,9004830.242,-1.35,1.148,2.699,4.2,1.095,1.091,4.404,3.901
759.0,,,9027528.571,-1.35,1.136,2.699,4.2,1.092,1.095,4.387,3.922
761.0,,,9050193.388,-1.35,1.134,2.699,4.2,1.085,1.085,4.361,3.874
763.0,,,9061513.729,-1.35,0.649,2.699,4.2,0.075,1.1,0.316,3.949
765.0,,,9083734.724,-1.35,1.134,2.699,4.2,1.079,1.069,4.333,3.82
767.0,,,9105954.15,-1.35,1.131,2.699,4.2,1.066,1.08,4.287,3.871
769.0,,,9128150.381,-1.35,1.13,2.699,4.2,1.077,1.071,4.325,3.828
771.0,,,9150396.461,-1.349,1.136,2.699,4.199,1.055,1.056,4.249,3.758
773.0,,,9172627.788,-1.35,1.141,2.699,4.199,1.051,1.052,4.236,3.74
775.0,,,9194929.196,-1.35,1.137,2.699,4.2,1.058,1.067,4.258,3.806
777.0,,,9217193.925,-1.35,1.132,2.699,4.199,1.061,1.054,4.267,3.746
779.0,,,9239413.392,-1.35,1.141,2.699,4.199,1.044,1.047,4.211,3.716
781.0,,,9261610.407,-1.35,1.147,2.699,4.199,1.041,1.042,4.2,3.694
783.0,,,9283958.517,-1.35,1.142,2.699,4.2,1.052,1.059,4.238,3.773
785.0,,,9306235.43,-1.35,1.138,2.699,4.199,1.053,1.043,4.243,3.696
787.0,,,9328426.227,-1.349,1.141,2.699,4.199,1.037,1.04,4.182,3.685
789.0,,,9350610.385,-1.35,1.14,2.699,4.199,1.034,1.035,4.172,3.663
791.0,,,9372789.112,-1.35,1.151,2.699,4.199,1.03,1.032,4.161,3.649
793.0,,,9394977.958,-1.35,1.149,2.699,4.199,1.027,1.03,4.148,3.64
795.0,,,9417254.895,-1.35,1.164,2.699,4.199,1.032,1.041,4.168,3.694
797.0,,,9439481.171,-1.349,1.141,2.699,4.199,1.044,1.045,4.208,3.713
799.0,,,9461721.852,-1.35,1.14,2.699,4.199,1.043,1.046,4.205,3.719
801.0,,,9483971.255,-1.35,1.141,2.699,4.199,1.044,1.048,4.207,3.727
803.0,,,9506224.277,-1.349,1.146,2.699,4.2,1.047,1.049,4.219,3.732
805.0,,,9528454.12,-1.35,1.139,2.699,4.199,1.047,1.048,4.218,3.728
807.0,,,9550691.308,-1.349,1.147,2.699,4.2,1.044,1.047,4.206,3.721
809.0,,,9572916.884,-1.35,1.149,2.699,4.199,1.043,1.046,4.205,3.718
811.0,,,9595111.174,-1.35,1.139,2.699,4.2,1.042,1.047,4.201,3.721
813.0,,,9617655.991,-1.35,1.145,2.699,4.2,1.034,1.056,4.188,3.762
815.0,,,9640141.972,-1.35,1.156,2.699,4.2,1.058,1.056,4.262,3.758
817.0,,,9662537.844,-1.35,1.142,2.699,4.2,1.053,1.054,4.244,3.748
819.0,,,9684908.698,-1.35,1.142,2.699,4.199,1.05,1.055,4.229,3.753
821.0,,,9707243.334,-1.35,1.14,2.699,4.2,1.053,1.057,4.239,3.766
823.0,,,9729527.923,-1.35,1.148,2.699,4.2,1.052,1.053,4.236,3.746
825.0,,,9751808.969,-1.35,1.145,2.699,4.2,1.048,1.051,4.221,3.738
827.0,,,9774055.58,-1.35,1.147,2.699,4.2,1.047,1.05,4.219,3.734
829.0,,,9796433.665,-1.35,1.144,2.699,4.2,1.055,1.046,4.247,3.72
831.0,,,9818619.901,-1.35,1.151,2.699,4.199,1.039,1.04,4.191,3.691
833.0,,,9840765.598,-1.35,1.145,2.699,4.199,1.035,1.036,4.175,3.674
835.0,,,9862923.202,-1.349,1.149,2.699,4.199,1.032,1.036,4.164,3.674
837.0,,,9885051.963,-1.35,1.15,2.699,4.199,1.034,1.036,4.172,3.678
839.0,,,9907179.085,-1.35,1.152,2.699,4.199,1.031,1.031,4.158,3.656
841.0,,,9924963.608,-1.349,0.675,2.699,4.199,0.799,0.813,3.19,2.837
843.0,,,9947201.225,-1.349,1.156,2.699,4.199,1.019,1.021,4.117,3.612
845.0,,,9969225.585,-1.35,1.164,2.699,4.199,1.018,1.022,4.11,3.615
847.0,,,9991219.94,-1.35,1.155,2.699,4.199,1.017,1.017,4.109,3.595
849.0,,,10013180.443,-1.349,1.155,2.699,4.199,1.014,1.015,4.095,3.587
851.0,,,10035135.505,-1.349,1.158,2.699,4.199,1.01,1.014,4.082,3.582
853.0,,,10057089.853,-1.349,1.161,2.699,4.199,1.013,1.017,4.093,3.595
855.0,,,10079039.047,-1.349,1.147,2.699,4.199,1.013,1.016,4.093,3.594
857.0,,,10100996.169,-1.349,1.156,2.699,4.199,1.013,1.015,4.093,3.59
859.0,,,10122951.992,-1.349,1.154,2.699,4.199,1.013,1.014,4.093,3.585
861.0,,,10144908.598,-1.349,1.147,2.699,4.199,1.012,1.013,4.089,3.582
863.0,,,10167286.084,-1.349,1.148,2.699,4.199,0.993,1.02,4.039,3.622
865.0,,,10189485.846,-1.35,1.149,2.699,4.199,1.023,1.022,4.131,3.618
867.0,,,10211599.426,-1.349,1.148,2.699,4.199,1.019,1.021,4.116,3.615
869.0,,,10233708.174,-1.35,1.149,2.699,4.199,1.019,1.023,4.116,3.622
871.0,,,10255855.623,-1.35,1.15,2.699,4.199,1.026,1.024,4.142,3.626
873.0,,,10277869.242,-1.35,1.153,2.699,4.199,1.017,1.016,4.109,3.589
875.0,,,10299861.455,-1.349,1.177,2.699,4.199,1.01,1.011,4.083,3.566
877.0,,,10317438.553,-1.349,0.675,2.699,4.197,0.777,0.796,3.108,2.77
879.0,,,10339622.31,-1.349,1.15,2.699,4.199,1.011,1.013,4.084,3.58
881.0,,,10361566.434,-1.349,1.155,2.699,4.199,1.006,1.006,4.068,3.55
883.0,,,10383503.634,-1.349,1.154,2.699,4.199,1.002,1.004,4.053,3.54
885.0,,,10405440.31,-1.349,1.149,2.699,4.199,1.001,1.004,4.05,3.543
887.0,,,10427343.198,-1.349,1.161,2.699,4.199,1.004,1.005,4.057,3.548
889.0,,,10449211.552,-1.349,1.151,2.699,4.199,0.999,1.0,4.042,3.523
891.0,,,10471056.829,-1.35,1.173,2.699,4.199,0.995,0.998,4.025,3.517
893.0,,,10492909.805,-1.349,1.163,2.699,4.199,0.993,0.996,4.016,3.509
895.0,,,10514819.113,-1.35,1.159,2.699,4.199,0.993,1.0,4.018,3.528
897.0,,,10536694.238,-1.35,1.166,2.699,4.199,1.003,1.008,4.051,3.563
899.0,,,10558583.569,-1.349,1.153,2.699,4.199,1.007,1.009,4.066,3.572
901.0,,,10580452.233,-1.35,1.153,2.699,4.199,1.007,1.01,4.064,3.575
903.0,,,10602323.708,-1.349,1.153,2.699,4.199,1.009,1.011,4.076,3.58
905.0,,,10624197.679,-1.35,1.154,2.699,4.199,1.01,1.011,4.076,3.579
907.0,,,10646080.512,-1.349,1.154,2.699,4.199,1.01,1.01,4.077,3.578
909.0,,,10663780.057,-1.35,1.151,2.699,4.199,1.012,0.996,4.085,3.513
911.0,,,10685593.764,-1.35,1.159,2.699,4.199,0.994,0.996,4.021,3.512
913.0,,,10707722.226,-1.349,1.166,2.699,4.199,0.978,0.996,3.98,3.519
915.0,,,10729736.589,-1.35,1.155,2.699,4.199,1.001,0.997,4.047,3.517
917.0,,,10751661.26,-1.349,1.158,2.699,4.199,0.994,0.998,4.02,3.518
919.0,,,10773522.077,-1.349,1.155,2.699,4.199,0.996,0.999,4.028,3.525
921.0,,,10795362.561,-1.35,1.155,2.699,4.199,0.998,1.002,4.035,3.539
923.0,,,10817167.462,-1.35,1.149,2.699,4.199,0.994,0.998,4.02,3.521
925.0,,,10838944.104,-1.349,1.159,2.699,4.199,0.991,0.991,4.005,3.491
927.0,,,10860666.786,-1.349,1.159,2.699,4.199,0.986,0.989,3.989,3.482
929.0,,,10882372.794,-1.35,1.149,2.699,4.199,0.983,0.986,3.977,3.472
931.0,,,10894392.338,0.0,0.674,3.456,3.923,0.194,0.0,0.748,0.0
933.0,,,10915288.739,-1.35,1.145,2.699,4.199,0.998,0.993,4.033,3.512
935.0,,,10937016.308,-1.35,1.148,2.699,4.199,0.992,0.993,4.012,3.509
937.0,,,10958798.295,-1.349,1.148,2.699,4.199,0.99,0.994,4.004,3.508
939.0,,,10980647.031,-1.35,1.155,2.699,4.199,0.991,0.995,4.01,3.512
941.0,,,11002502.627,-1.349,1.152,2.699,4.199,0.994,0.998,4.02,3.524
943.0,,,11024321.413,-1.349,1.17,2.699,4.199,0.991,0.993,4.007,3.503
945.0,,,11046150.14,-1.35,1.156,2.699,4.199,0.988,0.991,3.996,3.494
947.0,,,11067985.26,-1.349,1.15,2.699,4.199,0.988,0.991,3.996,3.495
949.0,,,11089818.163,-1.35,1.159,2.699,4.199,0.991,0.994,4.006,3.509
951.0,,,11111602.8,-1.349,1.151,2.699,4.199,0.984,0.986,3.981,3.471
953.0,,,11133378.847,-1.35,1.149,2.699,4.199,0.98,0.983,3.964,3.458
955.0,,,11155154.486,-1.35,1.167,2.699,4.199,0.979,0.982,3.961,3.457
957.0,,,11172337.813,-1.349,0.675,2.699,4.198,0.743,0.76,2.973,2.637
959.0,,,11194299.086,-1.35,1.157,2.699,4.199,0.976,0.978,3.949,3.44
961.0,,,11216046.577,-1.349,1.161,2.699,4.199,0.974,0.976,3.946,3.432
963.0,,,11237779.851,-1.35,1.17,2.699,4.199,0.971,0.976,3.932,3.431
965.0,,,11259507.828,-1.35,1.152,2.699,4.199,0.975,0.978,3.944,3.442
967.0,,,11281203.39,-1.349,1.162,2.699,4.199,0.973,0.975,3.939,3.428
969.0,,,11302884.708,-1.349,1.158,2.699,4.199,0.97,0.973,3.926,3.42
971.0,,,11324558.495,-1.349,1.156,2.699,4.199,0.97,0.972,3.927,3.416
973.0,,,11346224.226,-1.349,1.159,2.699,4.199,0.969,0.971,3.924,3.411
975.0,,,11367877.38,-1.349,1.154,2.699,4.199,0.969,0.97,3.924,3.409
977.0,,,11389518.131,-1.349,1.151,2.699,4.199,0.965,0.968,3.909,3.401
979.0,,,11411141.205,-1.349,1.164,2.699,4.199,0.964,0.966,3.906,3.395
981.0,,,11432794.73,-1.349,1.183,2.699,4.199,0.965,0.97,3.908,3.411
983.0,,,11455059.292,-1.349,1.147,2.699,4.199,0.984,0.977,3.984,3.448
985.0,,,11476818.639,-1.349,1.151,2.699,4.199,0.977,0.979,3.956,3.452
987.0,,,11498563.416,-1.349,1.152,2.699,4.199,0.977,0.979,3.957,3.446
989.0,,,11520320.836,-1.35,1.173,2.699,4.199,0.977,0.98,3.955,3.45
991.0,,,11542105.274,-1.35,1.152,2.699,4.199,0.978,0.98,3.961,3.448
993.0,,,11563885.909,-1.349,1.165,2.699,4.199,0.974,0.976,3.945,3.43
995.0,,,11585649.791,-1.349,1.155,2.699,4.199,0.971,0.973,3.933,3.417
997.0,,,11607415.969,-1.349,1.154,2.699,4.199,0.968,0.971,3.919,3.411
999.0,,,11629097.78,-1.349,1.156,2.699,4.199,0.969,0.971,3.923,3.412
1001.0,,,11650795.036,-1.35,1.16,2.699,4.199,0.966,0.967,3.912,3.397
1003.0,,,11672480.238,-1.349,1.182,2.699,4.199,0.962,0.966,3.896,3.39
1005.0,,,11694179.041,-1.349,1.162,2.699,4.199,0.962,0.967,3.898,3.398
1007.0,,,11715871.246,-1.35,1.159,2.699,4.199,0.965,0.968,3.907,3.403
1009.0,,,11737534.435,-1.349,1.172,2.699,4.199,0.964,0.967,3.905,3.399
1011.0,,,11759178.068,-1.349,1.177,2.699,4.199,0.963,0.966,3.901,3.394
1013.0,,,11780806.177,-1.35,1.159,2.699,4.199,0.966,0.968,3.913,3.405
1015.0,,,11798033.165,-1.35,1.16,2.699,4.199,0.976,0.966,3.953,3.399
1017.0,,,11819679.725,-1.35,1.157,2.699,4.199,0.963,0.964,3.901,3.386
1019.0,,,11841252.377,-1.349,1.166,2.699,4.199,0.955,0.957,3.869,3.357
1021.0,,,11862808.051,-1.35,1.158,2.699,4.199,0.955,0.959,3.87,3.366
1023.0,,,11884355.274,-1.349,1.163,2.699,4.199,0.957,0.959,3.878,3.372
1025.0,,,11905880.803,-1.35,1.168,2.699,4.199,0.95,0.954,3.85,3.347
1027.0,,,11927367.55,-1.349,1.167,2.699,4.199,0.949,0.951,3.846,3.334
1029.0,,,11948842.949,-1.349,1.18,2.699,4.199,0.949,0.953,3.844,3.346
1031.0,,,11970336.305,-1.349,1.169,2.699,4.199,0.953,0.957,3.861,3.362
1033.0,,,11992487.437,-1.349,1.159,2.699,4.199,0.973,0.967,3.94,3.408
1035.0,,,12014215.328,-1.35,1.153,2.699,4.199,0.967,0.967,3.917,3.404
1037.0,,,12035873.896,-1.349,1.168,2.699,4.199,0.963,0.966,3.898,3.396
1039.0,,,12057532.316,-1.349,1.15,2.699,4.199,0.966,0.968,3.909,3.407
1041.0,,,12079130.062,-1.349,1.153,2.699,4.199,0.962,0.963,3.896,3.387
1043.0,,,12100691.357,-1.35,1.163,2.699,4.199,0.957,0.959,3.875,3.371
1045.0,,,12122183.246,-1.35,1.152,2.699,4.199,0.953,0.956,3.86,3.36
1047.0,,,12143693.041,-1.35,1.157,2.699,4.199,0.953,0.954,3.858,3.352
1049.0,,,12165169.623,-1.35,1.155,2.699,4.199,0.952,0.952,3.855,3.341
1051.0,,,12186538.15,-1.35,1.151,2.699,4.199,0.942,0.943,3.819,3.306
1053.0,,,12207886.68,-1.349,1.166,2.699,4.199,0.938,0.94,3.802,3.294
1055.0,,,12229239.608,-1.349,1.168,2.699,4.199,0.938,0.942,3.801,3.303
1057.0,,,12250570.928,-1.349,1.163,2.699,4.199,0.938,0.941,3.799,3.303
1059.0,,,12267441.953,-1.349,1.167,2.699,4.199,0.946,0.935,3.837,3.279
1061.0,,,12288765.937,-1.349,1.152,2.699,4.199,0.933,0.936,3.783,3.28
1063.0,,,12310081.773,-1.35,1.159,2.699,4.199,0.937,0.94,3.796,3.298
1065.0,,,12331360.497,-1.349,1.161,2.699,4.199,0.936,0.937,3.792,3.284
1067.0,,,12352598.172,-1.349,1.179,2.699,4.199,0.931,0.932,3.775,3.263
1069.0,,,12373793.095,-1.349,1.157,2.699,4.199,0.928,0.927,3.762,3.245
1071.0,,,12395032.098,-1.35,1.166,2.699,4.199,0.924,0.929,3.747,3.254
1073.0,,,12416228.239,-1.349,1.155,2.699,4.199,0.927,0.927,3.759,3.245
1075.0,,,12437348.957,-1.349,1.163,2.699,4.199,0.919,0.921,3.727,3.22
1077.0,,,12458439.547,-1.35,1.16,2.699,4.199,0.918,0.919,3.725,3.211
1079.0,,,12479562.868,-1.349,1.17,2.699,4.199,0.918,0.923,3.725,3.232
1081.0,,,12495964.387,-1.349,0.675,2.699,4.197,0.682,0.7,2.731,2.416
1083.0,,,12517910.523,-1.349,1.169,2.699,4.199,0.939,0.931,3.805,3.267
1085.0,,,12539203.005,-1.35,1.183,2.699,4.199,0.931,0.931,3.776,3.26
1087.0,,,12560460.9,-1.349,1.166,2.699,4.199,0.928,0.929,3.762,3.251
1089.0,,,12576996.057,-1.349,0.675,2.699,4.196,0.688,0.708,2.757,2.447
1091.0,,,12598522.717,-1.349,1.158,2.699,4.199,0.929,0.929,3.765,3.256
1093.0,,,12619716.075,-1.349,1.166,2.699,4.199,0.922,0.923,3.742,3.229
1095.0,,,12640858.101,-1.349,1.158,2.699,4.199,0.918,0.92,3.726,3.215
1097.0,,,12661997.201,-1.349,1.181,2.699,4.199,0.92,0.922,3.733,3.227
1099.0,,,12678364.172,-1.349,0.675,2.699,4.199,0.681,0.698,2.727,2.409
1101.0,,,12699745.63,-1.35,1.168,2.699,4.199,0.917,0.919,3.721,3.216
1103.0,,,12720823.256,-1.349,1.155,2.699,4.199,0.916,0.918,3.717,3.211
1105.0,,,12741909.064,-1.349,1.167,2.699,4.199,0.916,0.92,3.715,3.224
1107.0,,,12762988.652,-1.349,1.157,2.699,4.199,0.92,0.92,3.73,3.224
1109.0,,,12784012.265,-1.349,1.177,2.699,4.199,0.915,0.915,3.71,3.203
1111.0,,,12804917.964,-1.35,1.165,2.699,4.199,0.906,0.907,3.678,3.168
1113.0,,,12825830.807,-1.349,1.16,2.699,4.199,0.903,0.909,3.665,3.178
1115.0,,,12846728.621,-1.35,1.165,2.699,4.199,0.908,0.911,3.687,3.191
1117.0,,,12867583.951,-1.349,1.165,2.699,4.199,0.901,0.902,3.658,3.149
1119.0,,,12883587.663,-1.349,0.675,2.699,4.197,0.654,0.672,2.621,2.315
1121.0,,,12904679.469,-1.349,1.166,2.699,4.199,0.897,0.899,3.642,3.142
1123.0,,,12925525.487,-1.349,1.183,2.699,4.199,0.904,0.905,3.666,3.167
1125.0,,,12946322.519,-1.349,1.164,2.699,4.199,0.9,0.902,3.651,3.155
1127.0,,,12967023.382,-1.349,1.171,2.699,4.199,0.894,0.895,3.631,3.124
1129.0,,,12987699.55,-1.349,1.171,2.699,4.199,0.89,0.892,3.615,3.114
1131.0,,,13008372.307,-1.349,1.187,2.699,4.199,0.89,0.893,3.616,3.12
1133.0,,,13030048.768,-1.349,1.162,2.699,4.199,0.93,0.92,3.772,3.231
1135.0,,,13051096.471,-1.349,1.169,2.699,4.199,0.918,0.914,3.722,3.202
1137.0,,,13072042.903,-1.349,1.175,2.699,4.199,0.909,0.909,3.691,3.179
1139.0,,,13088495.036,-1.35,1.186,2.699,4.199,0.917,0.904,3.723,3.161
1141.0,,,13109535.642,-1.35,1.165,2.699,4.199,0.91,0.912,3.695,3.191
1143.0,,,13125758.987,-1.349,0.675,2.699,4.197,0.67,0.687,2.685,2.372
1145.0,,,13146905.728,-1.349,1.172,2.699,4.199,0.901,0.899,3.659,3.138
1147.0,,,13167736.103,-1.349,1.171,2.699,4.199,0.893,0.895,3.627,3.124
1149.0,,,13188597.974,-1.349,1.173,2.699,4.199,0.897,0.903,3.641,3.156
1151.0,,,13209449.409,-1.349,1.18,2.699,4.199,0.9,0.903,3.652,3.158
1153.0,,,13230268.384,-1.349,1.169,2.699,4.199,0.895,0.897,3.635,3.135
1155.0,,,13251039.7,-1.35,1.178,2.699,4.199,0.894,0.896,3.631,3.13
1157.0,,,13271816.099,-1.349,1.169,2.699,4.199,0.895,0.899,3.634,3.145
1159.0,,,13292563.902,-1.35,1.164,2.699,4.199,0.897,0.898,3.64,3.14
1161.0,,,13308819.331,-1.35,1.189,2.699,4.199,0.905,0.893,3.677,3.121
1163.0,,,13329554.819,-1.35,1.16,2.699,4.199,0.89,0.89,3.615,3.109
1165.0,,,13350246.149,-1.35,1.176,2.699,4.199,0.885,0.889,3.596,3.102
1167.0,,,13370914.273,-1.349,1.172,2.699,4.199,0.888,0.888,3.606,3.101
1169.0,,,13391493.624,-1.349,1.198,2.699,4.199,0.883,0.881,3.588,3.072
1171.0,,,13412006.276,-1.349,1.173,2.699,4.199,0.874,0.872,3.551,3.036
1173.0,,,13432450.213,-1.349,1.176,2.699,4.199,0.866,0.867,3.522,3.015
1175.0,,,13452926.66,-1.349,1.169,2.699,4.199,0.87,0.872,3.536,3.036
1177.0,,,13473388.13,-1.349,1.175,2.699,4.199,0.87,0.872,3.535,3.039
1179.0,,,13493852.844,-1.349,1.166,2.699,4.199,0.869,0.869,3.533,3.027
1181.0,,,13514257.281,-1.349,1.169,2.699,4.199,0.861,0.866,3.502,3.015
1183.0,,,13535549.933,-1.349,1.181,2.699,4.199,0.892,0.886,3.623,3.096
1185.0,,,13556294.365,-1.349,1.175,2.699,4.199,0.882,0.882,3.582,3.075
1187.0,,,13576943.267,-1.349,1.171,2.699,4.199,0.876,0.873,3.562,3.038
1189.0,,,13597504.403,-1.349,1.168,2.699,4.199,0.868,0.87,3.53,3.026
1191.0,,,13618135.621,-1.35,1.176,2.699,4.199,0.876,0.878,3.561,3.062
1193.0,,,13638730.878,-1.349,1.172,2.699,4.199,0.871,0.874,3.54,3.044
1195.0,,,13659240.723,-1.349,1.171,2.699,4.199,0.869,0.869,3.532,3.024
1197.0,,,13679716.551,-1.35,1.173,2.699,4.199,0.865,0.87,3.518,3.032
1199.0,,,13700222.45,-1.35,1.173,2.699,4.199,0.869,0.872,3.532,3.038
1201.0,,,13720699.377,-1.349,1.186,2.699,4.199,0.868,0.868,3.528,3.024
1203.0,,,13741110.495,-1.35,1.162,2.699,4.199,0.864,0.864,3.511,3.009
1205.0,,,13761480.497,-1.349,1.168,2.699,4.199,0.859,0.86,3.494,2.992
1207.0,,,13781887.406,-1.35,1.176,2.699,4.199,0.86,0.864,3.495,3.007
1209.0,,,13802246.384,-1.349,1.177,2.699,4.199,0.859,0.862,3.49,3.0
1211.0,,,13822564.619,-1.349,1.172,2.699,4.199,0.854,0.857,3.474,2.979
1213.0,,,13842842.212,-1.349,1.196,2.699,4.199,0.85,0.854,3.457,2.968
1215.0,,,13863129.125,-1.35,1.163,2.699,4.199,0.85,0.857,3.459,2.984
1217.0,,,13883442.673,-1.35,1.172,2.699,4.199,0.862,0.89,3.503,3.113
1219.0,,,13904154.606,-1.35,1.169,2.699,4.199,0.884,0.885,3.585,3.092
1221.0,,,13924844.396,-1.35,1.186,2.699,4.199,0.879,0.881,3.57,3.076
1223.0,,,13945519.635,-1.35,1.163,2.699,4.199,0.876,0.879,3.559,3.066
1225.0,,,13966180.938,-1.35,1.173,2.699,4.199,0.875,0.878,3.556,3.064
1227.0,,,13986869.065,-1.35,1.171,2.699,4.199,0.876,0.878,3.558,3.062
1229.0,,,14007523.742,-1.35,1.162,2.699,4.199,0.873,0.873,3.545,3.043
1231.0,,,14028123.106,-1.35,1.167,2.699,4.199,0.863,0.865,3.509,3.011
1233.0,,,14049525.174,-1.35,1.172,2.699,4.199,0.896,0.892,3.636,3.124
1235.0,,,14070347.537,-1.35,1.187,2.699,4.199,0.888,0.885,3.605,3.094
1237.0,,,14091076.705,-1.35,1.167,2.699,4.199,0.88,0.879,3.573,3.068
1239.0,,,14111763.452,-1.35,1.174,2.699,4.199,0.875,0.878,3.554,3.066
1241.0,,,14132425.362,-1.349,1.18,2.699,4.199,0.878,0.879,3.565,3.071
1243.0,,,14153022.424,-1.35,1.169,2.699,4.199,0.869,0.87,3.532,3.037
1245.0,,,14173538.839,-1.35,1.179,2.699,4.199,0.864,0.865,3.51,3.018
1247.0,,,14193980.118,-1.349,1.169,2.699,4.199,0.855,0.858,3.477,2.991
1249.0,,,14214406.509,-1.35,1.17,2.699,4.199,0.855,0.859,3.476,2.998
1251.0,,,14234744.041,-1.349,1.175,2.699,4.199,0.853,0.854,3.468,2.978
1253.0,,,14254957.668,-1.349,1.175,2.699,4.199,0.842,0.842,3.426,2.929
1255.0,,,14270446.295,-1.349,1.175,2.699,4.199,0.85,0.834,3.461,2.902
1257.0,,,14290665.005,-1.35,1.179,2.699,4.199,0.839,0.841,3.414,2.929
1259.0,,,14310842.055,-1.349,1.178,2.699,4.199,0.842,0.844,3.424,2.943
1261.0,,,14330939.273,-1.349,1.178,2.699,4.199,0.836,0.837,3.402,2.913
1263.0,,,14350947.793,-1.349,1.166,2.699,4.199,0.831,0.832,3.384,2.894
1265.0,,,14370901.05,-1.349,1.167,2.699,4.199,0.826,0.828,3.364,2.88
1267.0,,,14390844.956,-1.349,1.192,2.699,4.199,0.827,0.83,3.364,2.885
1269.0,,,14410725.283,-1.349,1.195,2.699,4.199,0.826,0.827,3.362,2.876
1271.0,,,14430551.526,-1.349,1.172,2.699,4.199,0.82,0.822,3.34,2.854
1273.0,,,14450375.727,-1.349,1.175,2.699,4.199,0.816,0.819,3.323,2.844
1275.0,,,14470169.198,-1.349,1.187,2.699,4.199,0.816,0.819,3.323,2.845
1277.0,,,14490062.949,-1.349,1.17,2.699,4.199,0.828,0.827,3.368,2.876
1279.0,,,14509888.52,-1.349,1.203,2.699,4.199,0.821,0.821,3.344,2.854
1281.0,,,14529711.747,-1.35,1.183,2.699,4.199,0.82,0.821,3.339,2.854