File: Li-ion_Batteries/CALCE_CX2-16_prism_LCO_25C_0-100_0.5-0.5C_a_cycle_data.csv
Cycle_Index,Start_Time,End_Time,Test_Time (s),Min_Current (A),Max_Current (A),Min_Voltage (V),Max_Voltage (V),Charge_Capacity (Ah),Discharge_Capacity (Ah),Charge_Energy (Wh),Discharge_Energy (Wh)
1.0,,,10907.674,-0.55,0.905,2.699,4.201,0.108,1.268,0.455,4.717
4.0,,,63919.436,-0.551,1.273,2.699,4.2,1.269,1.269,5.076,4.727
7.0,,,116888.059,-0.55,1.277,2.699,4.2,1.267,1.267,5.065,4.722
10.0,,,169784.37,-0.55,1.287,2.699,4.2,1.266,1.268,5.063,4.725
13.0,,,222643.458,-0.595,1.278,2.699,4.2,1.267,1.266,5.07,4.713
16.0,,,275343.452,-0.55,1.285,2.699,4.216,1.272,1.267,5.082,4.725
19.0,,,323397.187,-0.55,0.675,2.699,4.199,1.058,1.061,4.191,3.908
22.0,,,376158.167,-0.55,1.276,2.699,4.2,1.262,1.263,5.05,4.703
25.0,,,428815.882,-0.55,1.284,2.699,4.2,1.262,1.263,5.045,4.706
28.0,,,481483.388,-0.551,1.287,2.699,4.203,1.259,1.26,5.037,4.693
31.0,,,534149.772,-0.551,1.302,2.699,4.201,1.26,1.262,5.04,4.701
34.0,,,586748.848,-0.55,1.272,2.699,4.2,1.261,1.26,5.042,4.696
37.0,,,639287.511,-0.55,1.281,2.699,4.2,1.259,1.259,5.038,4.691
40.0,,,691873.245,-0.55,1.29,2.699,4.2,1.257,1.26,5.029,4.696
43.0,,,744392.672,-0.55,1.314,2.699,4.2,1.256,1.257,5.024,4.685
46.0,,,796827.052,-0.55,1.273,2.699,4.2,1.259,1.259,5.033,4.695
49.0,,,849210.701,-0.55,1.277,2.699,4.208,1.259,1.26,5.031,4.702
52.0,,,901960.382,-0.55,1.286,2.699,4.2,1.273,1.272,5.088,4.74
55.0,,,954931.996,-0.568,1.304,2.699,4.2,1.267,1.268,5.067,4.728
58.0,,,1007578.009,-0.55,1.328,2.699,4.201,1.266,1.265,5.06,4.718
61.0,,,1060152.108,-0.55,1.304,2.699,4.2,1.267,1.266,5.059,4.726
64.0,,,1112618.966,-0.55,1.285,2.699,4.205,1.263,1.262,5.045,4.711
67.0,,,1165001.342,-0.55,1.277,2.699,4.204,1.262,1.262,5.042,4.711
70.0,,,1212946.748,-0.551,1.298,2.699,4.202,1.261,1.26,5.041,4.702
73.0,,,1265292.041,-0.55,1.302,2.699,4.204,1.256,1.256,5.02,4.68
76.0,,,1317713.094,-0.551,1.28,2.699,4.2,1.256,1.257,5.024,4.688
79.0,,,1370016.574,-0.55,1.292,2.699,4.2,1.255,1.255,5.02,4.679
82.0,,,1422340.627,-0.55,1.274,2.699,4.2,1.254,1.253,5.009,4.669
85.0,,,1474617.823,-0.55,1.303,2.699,4.206,1.252,1.252,5.01,4.664
88.0,,,1526831.534,-0.55,1.275,2.699,4.2,1.248,1.249,4.995,4.65
91.0,,,1574533.285,-0.552,0.676,2.699,4.199,1.052,1.055,4.169,3.89
94.0,,,1626716.489,-0.55,1.282,2.699,4.2,1.248,1.248,4.991,4.65
97.0,,,1672105.39,-0.55,0.675,3.08,4.197,1.053,0.71,4.17,2.684
100.0,,,1722516.72,-0.55,1.293,2.699,4.201,1.245,1.246,4.981,4.642
103.0,,,1774647.018,-0.55,1.285,2.699,4.207,1.249,1.248,4.993,4.655
106.0,,,1826865.15,-0.55,1.281,2.699,4.2,1.245,1.247,4.984,4.644
109.0,,,1878893.229,-0.55,1.321,2.699,4.201,1.248,1.247,4.991,4.651
112.0,,,1930927.812,-0.55,1.282,2.699,4.2,1.249,1.249,4.992,4.663
115.0,,,1982939.534,-0.55,1.288,2.699,4.2,1.246,1.243,4.986,4.628
118.0,,,2035028.11,-0.55,1.295,2.699,4.2,1.245,1.243,4.979,4.631
121.0,,,2087105.932,-0.55,1.302,2.699,4.2,1.24,1.243,4.963,4.636
124.0,,,2139027.343,-0.55,1.289,2.699,4.2,1.243,1.24,4.97,4.618
127.0,,,2191038.33,-0.55,1.286,2.699,4.2,1.24,1.24,4.963,4.617
130.0,,,2243038.647,-0.55,1.314,2.699,4.2,1.236,1.237,4.95,4.605
133.0,,,2294956.485,-0.55,1.3,2.699,4.2,1.239,1.24,4.957,4.62
136.0,,,2342273.189,-0.55,1.287,2.699,4.2,1.237,1.239,4.951,4.615
139.0,,,2394148.561,-0.55,1.298,2.699,4.2,1.239,1.239,4.959,4.618
142.0,,,2445999.441,-0.55,1.296,2.699,4.2,1.239,1.239,4.957,4.617
145.0,,,2497903.989,-0.55,1.283,2.699,4.2,1.234,1.233,4.945,4.588
148.0,,,2532399.983,-0.55,1.287,2.699,4.2,1.16,1.244,4.674,4.636
151.0,,,2584479.234,-0.55,1.296,2.699,4.2,1.239,1.239,4.962,4.612
154.0,,,2636418.334,-0.55,1.403,2.699,4.203,1.242,1.24,4.966,4.619
157.0,,,2688356.677,-0.55,1.291,2.699,4.2,1.24,1.24,4.963,4.625
160.0,,,2740207.523,-0.55,1.334,2.699,4.201,1.239,1.237,4.958,4.61
163.0,,,2787460.327,-0.55,0.675,2.699,4.197,1.037,1.042,4.105,3.841
166.0,,,2839339.899,-0.55,1.29,2.699,4.2,1.234,1.232,4.944,4.584
169.0,,,2891129.759,-0.55,1.306,2.699,4.201,1.235,1.233,4.941,4.594
172.0,,,2942882.153,-0.55,1.314,2.699,4.206,1.23,1.232,4.924,4.591
175.0,,,2994600.882,-0.55,1.278,2.699,4.208,1.23,1.23,4.924,4.581
178.0,,,3046361.719,-0.55,1.296,2.699,4.2,1.231,1.231,4.925,4.588
181.0,,,3098095.468,-0.55,1.295,2.699,4.2,1.226,1.225,4.909,4.556
184.0,,,3145101.496,-0.55,1.293,2.699,4.202,1.233,1.231,4.93,4.587
187.0,,,3196740.462,-0.55,1.281,2.699,4.2,1.228,1.23,4.917,4.584
190.0,,,3248239.854,-0.55,1.288,2.699,4.209,1.229,1.228,4.918,4.576
193.0,,,3299842.236,-0.55,1.295,2.699,4.2,1.229,1.229,4.918,4.58
196.0,,,3351415.033,-0.55,1.302,2.699,4.2,1.227,1.226,4.912,4.567
199.0,,,3403614.956,-0.55,1.329,2.699,4.2,1.252,1.247,5.009,4.64
202.0,,,3455918.653,-0.55,1.316,2.699,4.2,1.242,1.242,4.971,4.621
205.0,,,3508010.825,-0.55,1.3,2.699,4.2,1.239,1.237,4.961,4.603
208.0,,,3560023.557,-0.55,1.308,2.699,4.2,1.235,1.235,4.945,4.597
211.0,,,3611919.547,-0.55,1.32,2.699,4.2,1.228,1.228,4.921,4.561
214.0,,,3658892.847,-0.55,1.306,2.699,4.2,1.232,1.229,4.933,4.573
217.0,,,3710662.277,-0.55,1.298,2.699,4.2,1.226,1.225,4.914,4.551
220.0,,,3762368.692,-0.55,1.299,2.699,4.2,1.222,1.222,4.897,4.541
223.0,,,3814069.393,-0.55,1.305,2.699,4.2,1.22,1.22,4.889,4.533
226.0,,,3865650.886,-0.55,1.309,2.699,4.2,1.218,1.219,4.882,4.527
229.0,,,3917229.796,-0.55,1.304,2.699,4.2,1.22,1.219,4.886,4.534
232.0,,,3968785.572,-0.55,1.295,2.699,4.2,1.215,1.217,4.869,4.521
235.0,,,4020238.837,-0.55,1.293,2.699,4.2,1.219,1.216,4.882,4.522
238.0,,,4071691.791,-0.55,1.291,2.699,4.2,1.217,1.218,4.874,4.532
241.0,,,4123066.097,-0.55,1.289,2.699,4.2,1.212,1.213,4.857,4.509
244.0,,,4174421.842,-0.55,1.301,2.699,4.2,1.214,1.214,4.864,4.512
247.0,,,4225795.541,-0.55,1.307,2.699,4.2,1.212,1.212,4.856,4.506
250.0,,,4277491.607,-0.55,1.306,2.699,4.2,1.221,1.217,4.891,4.522
253.0,,,4329036.597,-0.55,1.303,2.699,4.2,1.216,1.216,4.873,4.523
256.0,,,4380474.654,-0.55,1.302,2.699,4.2,1.213,1.212,4.86,4.505
259.0,,,4431834.537,-0.55,1.312,2.699,4.2,1.213,1.212,4.862,4.507
262.0,,,4483137.171,-0.55,1.305,2.699,4.2,1.217,1.216,4.871,4.531
265.0,,,4534351.034,-0.55,1.32,2.699,4.2,1.215,1.213,4.863,4.515
268.0,,,4585528.026,-0.55,1.317,2.699,4.2,1.213,1.212,4.857,4.51
271.0,,,4636734.359,-0.55,1.291,2.699,4.2,1.208,1.209,4.841,4.498
274.0,,,4687889.187,-0.55,1.288,2.699,4.2,1.21,1.212,4.844,4.511
277.0,,,4738982.551,-0.55,1.289,2.699,4.2,1.212,1.212,4.849,4.514
280.0,,,4790061.851,-0.55,1.289,2.699,4.2,1.21,1.208,4.844,4.492
283.0,,,4841140.353,-0.55,1.286,2.699,4.2,1.209,1.208,4.839,4.496
286.0,,,4892208.355,-0.55,1.293,2.699,4.2,1.203,1.205,4.82,4.48
289.0,,,4943250.005,-0.55,1.293,2.699,4.2,1.205,1.205,4.828,4.485
292.0,,,4994257.287,-0.55,1.285,2.699,4.2,1.205,1.204,4.827,4.48
295.0,,,5040440.143,-0.55,0.675,2.699,4.199,0.996,1.002,3.949,3.685
298.0,,,5091436.555,-0.55,1.227,2.699,4.2,1.104,1.218,4.464,4.524
301.0,,,5143260.905,-0.55,1.234,2.699,4.2,1.216,1.214,4.88,4.505
304.0,,,5194900.96,-0.55,1.228,2.699,4.2,1.214,1.213,4.867,4.503
307.0,,,5246451.623,-0.55,1.235,2.699,4.2,1.21,1.21,4.856,4.494
310.0,,,5290541.113,-0.55,1.181,2.699,4.2,0.598,1.209,2.465,4.495
313.0,,,5341866.014,-0.55,1.229,2.699,4.2,1.207,1.207,4.841,4.484
316.0,,,5393143.668,-0.55,1.223,2.699,4.2,1.209,1.209,4.846,4.496
319.0,,,5439491.385,-0.55,1.225,2.699,4.2,1.21,1.204,4.852,4.472
322.0,,,5490731.988,-0.55,1.224,2.699,4.2,1.205,1.204,4.831,4.474
325.0,,,5541948.133,-0.55,1.228,2.699,4.2,1.203,1.204,4.825,4.473
328.0,,,5593109.009,-0.55,1.217,2.699,4.2,1.199,1.2,4.811,4.455
331.0,,,5644255.409,-0.55,1.221,2.699,4.2,1.199,1.199,4.809,4.454
334.0,,,5695365.066,-0.55,1.216,2.699,4.2,1.198,1.199,4.806,4.456
337.0,,,5746436.077,-0.55,1.229,2.699,4.2,1.2,1.2,4.812,4.461
340.0,,,5797514.018,-0.55,1.223,2.699,4.2,1.198,1.201,4.802,4.465
343.0,,,5848517.79,-0.55,1.244,2.699,4.2,1.2,1.198,4.812,4.452
346.0,,,5899539.396,-0.55,1.243,2.699,4.2,1.199,1.202,4.807,4.469
349.0,,,5950525.952,-0.55,1.219,2.699,4.2,1.196,1.197,4.797,4.446
352.0,,,6001516.989,-0.55,1.226,2.699,4.2,1.198,1.2,4.802,4.462
355.0,,,6052472.93,-0.55,1.236,2.699,4.2,1.198,1.199,4.803,4.46
358.0,,,6103401.611,-0.55,1.213,2.699,4.2,1.196,1.195,4.793,4.44
361.0,,,6154656.27,-0.55,1.227,2.699,4.2,1.203,1.202,4.824,4.462
364.0,,,6205833.031,-0.55,1.235,2.699,4.2,1.195,1.196,4.797,4.437
367.0,,,6256940.469,-0.55,1.224,2.699,4.2,1.194,1.193,4.793,4.428
370.0,,,6307959.437,-0.55,1.228,2.699,4.2,1.19,1.192,4.777,4.422
373.0,,,6358912.728,-0.55,1.229,2.699,4.2,1.19,1.19,4.774,4.414
376.0,,,6409839.818,-0.55,1.232,2.699,4.2,1.192,1.192,4.779,4.426
379.0,,,6460744.537,-0.55,1.256,2.699,4.2,1.189,1.19,4.773,4.419
382.0,,,6511584.841,-0.55,1.231,2.699,4.2,1.191,1.19,4.778,4.418
385.0,,,6562427.712,-0.55,1.232,2.699,4.2,1.188,1.19,4.764,4.418
388.0,,,6613222.845,-0.55,1.233,2.699,4.2,1.187,1.187,4.765,4.404
391.0,,,6664007.867,-0.55,1.22,2.699,4.2,1.187,1.187,4.761,4.409
394.0,,,6714766.937,-0.55,1.218,2.699,4.2,1.184,1.183,4.752,4.389
397.0,,,6765505.169,-0.55,1.229,2.699,4.2,1.189,1.186,4.766,4.404
400.0,,,6816220.979,-0.55,1.225,2.699,4.2,1.183,1.182,4.749,4.386
403.0,,,6866914.813,-0.55,1.216,2.699,4.2,1.183,1.182,4.746,4.386
406.0,,,6917585.012,-0.55,1.229,2.699,4.2,1.182,1.181,4.746,4.383
409.0,,,6968234.503,-0.55,1.239,2.699,4.2,1.182,1.18,4.744,4.379
412.0,,,7019248.054,-0.55,1.246,2.699,4.2,1.189,1.188,4.77,4.406
415.0,,,7070073.032,-0.55,1.219,2.699,4.2,1.187,1.188,4.76,4.412
418.0,,,7120810.26,-0.55,1.24,2.699,4.2,1.183,1.184,4.748,4.393
421.0,,,7171509.477,-0.55,1.222,2.699,4.2,1.184,1.184,4.749,4.394
424.0,,,7217197.771,-0.55,1.227,2.699,4.2,1.182,1.181,4.745,4.383
427.0,,,7253723.744,0.0,0.675,3.175,3.964,0.486,0.0,1.884,0.0
430.0,,,7301758.945,-0.55,1.23,2.699,4.2,1.178,1.179,4.727,4.375
433.0,,,7352367.097,-0.55,1.224,2.699,4.2,1.178,1.179,4.726,4.372
436.0,,,7397943.143,-0.55,1.234,2.699,4.2,1.178,1.178,4.728,4.368
439.0,,,7448507.11,-0.55,1.236,2.699,4.2,1.177,1.177,4.724,4.368
442.0,,,7499042.982,-0.55,1.244,2.699,4.2,1.177,1.176,4.724,4.363
445.0,,,7549565.52,-0.55,1.226,2.699,4.2,1.176,1.177,4.719,4.366
448.0,,,7600050.945,-0.55,1.233,2.699,4.2,1.176,1.177,4.719,4.367
451.0,,,7650531.935,-0.55,1.22,2.699,4.2,1.173,1.175,4.707,4.357
454.0,,,7700976.292,-0.55,1.225,2.699,4.2,1.175,1.177,4.713,4.371
457.0,,,7751407.591,-0.55,1.225,2.699,4.2,1.172,1.174,4.704,4.356
460.0,,,7801814.529,-0.55,1.22,2.699,4.2,1.174,1.173,4.711,4.353
463.0,,,7852218.401,-0.55,1.231,2.699,4.2,1.172,1.173,4.704,4.353
466.0,,,7902578.471,-0.55,1.213,2.699,4.2,1.174,1.173,4.712,4.353
469.0,,,7952943.641,-0.55,1.214,2.699,4.2,1.171,1.172,4.701,4.348
472.0,,,8003292.423,-0.55,1.218,2.699,4.2,1.171,1.171,4.699,4.343
475.0,,,8053614.933,-0.55,1.212,2.699,4.2,1.168,1.169,4.687,4.333
478.0,,,8096665.361,-0.55,0.463,2.699,4.2,0.043,1.207,0.184,4.477
481.0,,,8146985.098,-0.55,1.221,2.699,4.2,1.19,1.196,4.767,4.451
484.0,,,8197659.891,-0.55,1.214,2.699,4.2,1.189,1.19,4.763,4.427
487.0,,,8243637.377,-0.55,1.203,2.699,4.2,1.202,1.198,4.805,4.465
490.0,,,8294185.416,-0.55,1.213,2.699,4.2,1.184,1.182,4.746,4.389
493.0,,,8344788.051,-0.55,1.221,2.699,4.2,1.187,1.182,4.753,4.393
496.0,,,8395320.066,-0.55,1.219,2.699,4.2,1.179,1.185,4.728,4.405
499.0,,,8445906.497,-0.55,1.198,2.699,4.2,1.196,1.197,4.783,4.464
502.0,,,8496538.512,-0.55,1.195,2.699,4.2,1.2,1.202,4.792,4.485
505.0,,,8547194.333,-0.55,1.193,2.699,4.2,1.203,1.205,4.803,4.498
508.0,,,8597749.254,-0.55,1.184,2.699,4.2,1.203,1.195,4.803,4.45
511.0,,,8643488.607,-0.55,1.215,3.169,4.2,1.183,0.463,4.735,1.812
514.0,,,8690139.069,-0.55,1.197,2.699,4.2,1.196,1.199,4.785,4.47
517.0,,,8729011.154,0.0,0.675,3.162,4.177,0.948,0.0,3.748,0.0
520.0,,,8774271.683,-0.55,1.198,2.699,4.2,1.196,1.198,4.781,4.464
523.0,,,8824906.865,-0.55,1.192,2.699,4.2,1.202,1.202,4.801,4.486
526.0,,,8871097.279,-0.55,1.186,2.699,4.2,1.204,1.204,4.81,4.495
529.0,,,8921775.225,-0.55,1.181,2.699,4.2,1.205,1.207,4.81,4.506
532.0,,,8972286.987,-0.55,1.217,2.699,4.2,1.19,1.189,4.761,4.423
535.0,,,9006860.591,-0.55,1.221,2.699,4.2,1.181,1.188,4.732,4.423
538.0,,,9052790.91,-0.55,1.2,2.699,4.2,1.189,1.184,4.761,4.402
541.0,,,9103254.237,-0.55,1.223,2.699,4.2,1.184,1.19,4.742,4.43
544.0,,,9153639.232,-0.55,1.224,2.699,4.2,1.181,1.181,4.729,4.389
547.0,,,9204029.696,-0.55,1.202,2.699,4.2,1.188,1.188,4.751,4.425
550.0,,,9254312.585,-0.55,1.223,2.699,4.2,1.177,1.178,4.715,4.376
553.0,,,9304704.293,-0.55,1.201,2.699,4.2,1.184,1.179,4.738,4.384
556.0,,,9355039.129,-0.55,1.212,2.699,4.2,1.175,1.18,4.709,4.389
559.0,,,9405438.51,-0.55,1.189,2.699,4.2,1.192,1.194,4.766,4.451
562.0,,,9455890.708,-0.55,1.184,2.699,4.2,1.196,1.198,4.776,4.47
565.0,,,9506367.202,-0.55,1.198,2.699,4.2,1.199,1.2,4.789,4.48
568.0,,,9556736.998,-0.55,1.187,2.699,4.2,1.2,1.193,4.79,4.445
571.0,,,9594518.851,-0.55,1.202,2.699,4.2,1.178,1.179,4.716,4.383
574.0,,,9644811.969,-0.55,1.199,2.699,4.2,1.183,1.179,4.732,4.387
577.0,,,9695055.79,-0.55,1.212,2.699,4.2,1.176,1.182,4.711,4.401
580.0,,,9745283.711,-0.55,1.206,2.699,4.2,1.178,1.179,4.718,4.386
583.0,,,9795567.025,-0.55,1.197,2.699,4.2,1.181,1.186,4.725,4.417
586.0,,,9845706.539,-0.55,1.2,2.699,4.2,1.177,1.176,4.714,4.375
589.0,,,9895835.22,-0.55,1.199,2.699,4.2,1.182,1.178,4.724,4.381
592.0,,,9945963.579,-0.55,1.212,2.699,4.2,1.171,1.172,4.69,4.355
595.0,,,9996184.3,-0.55,1.203,2.699,4.2,1.187,1.188,4.745,4.428
598.0,,,10046460.365,-0.55,1.182,2.699,4.2,1.19,1.192,4.753,4.447
601.0,,,10096755.703,-0.55,1.18,2.699,4.2,1.193,1.193,4.765,4.452
604.0,,,10147043.68,-0.55,1.186,2.699,4.2,1.193,1.19,4.765,4.441
607.0,,,10197120.57,-0.55,1.21,2.699,4.2,1.176,1.173,4.707,4.361
610.0,,,10247250.093,-0.55,1.198,2.699,4.2,1.18,1.174,4.719,4.365
613.0,,,10297348.444,-0.55,1.201,2.699,4.2,1.171,1.175,4.692,4.373
616.0,,,10347369.512,-0.55,1.203,2.699,4.2,1.169,1.171,4.683,4.352
619.0,,,10397376.88,-0.55,1.2,2.699,4.2,1.175,1.178,4.704,4.385
622.0,,,10448735.405,-0.55,1.204,2.699,4.2,1.192,1.197,4.775,4.455
625.0,,,10499444.09,-0.55,1.21,2.699,4.2,1.189,1.189,4.762,4.418
628.0,,,10545249.974,-0.55,1.192,2.699,4.2,1.195,1.194,4.779,4.444
631.0,,,10590981.377,-0.55,1.204,2.699,4.2,1.188,1.184,4.754,4.403
634.0,,,10624813.515,-0.55,0.631,2.699,4.2,0.063,1.2,0.268,4.458
637.0,,,10675043.155,-0.55,1.186,2.699,4.2,1.188,1.182,4.747,4.396
640.0,,,10725262.927,-0.55,1.195,2.699,4.2,1.177,1.181,4.712,4.393
643.0,,,10775454.799,-0.55,1.198,2.699,4.2,1.177,1.178,4.712,4.383
646.0,,,10825609.411,-0.55,1.189,2.699,4.2,1.182,1.185,4.727,4.414
649.0,,,10875532.155,-0.55,1.199,2.699,4.2,1.168,1.17,4.679,4.347
652.0,,,10925494.675,-0.55,1.194,2.699,4.2,1.178,1.174,4.71,4.366
655.0,,,10975371.074,-0.55,1.204,2.699,4.2,1.167,1.162,4.671,4.316
658.0,,,11025373.553,-0.55,1.189,2.699,4.2,1.177,1.18,4.707,4.398
661.0,,,11075468.321,-0.55,1.183,2.699,4.2,1.184,1.185,4.73,4.419
664.0,,,11125602.072,-0.55,1.18,2.699,4.2,1.187,1.188,4.741,4.431
667.0,,,11175757.057,-0.55,1.19,2.699,4.199,1.188,1.19,4.741,4.44
670.0,,,11225724.635,-0.55,1.189,2.699,4.2,1.173,1.173,4.693,4.368
673.0,,,11275677.647,-0.55,1.176,2.699,4.2,1.178,1.174,4.708,4.369
676.0,,,11325569.678,-0.55,1.192,2.699,4.2,1.17,1.17,4.681,4.353
679.0,,,11375440.312,-0.55,1.196,2.699,4.2,1.169,1.171,4.68,4.357
682.0,,,11425301.523,-0.55,1.199,2.699,4.2,1.172,1.176,4.689,4.381
685.0,,,11475725.228,-0.55,1.192,2.699,4.2,1.186,1.187,4.743,4.422
688.0,,,11525992.896,-0.55,1.189,2.699,4.2,1.179,1.179,4.716,4.391
691.0,,,11576069.214,-0.55,1.186,2.699,4.2,1.181,1.184,4.72,4.414
694.0,,,11626239.404,-0.55,1.181,2.699,4.2,1.187,1.189,4.741,4.434
697.0,,,11676418.736,-0.55,1.173,2.699,4.2,1.19,1.191,4.751,4.444
700.0,,,11726594.019,-0.55,1.173,2.699,4.199,1.19,1.192,4.749,4.45
703.0,,,11772198.961,-0.55,1.185,2.699,4.2,1.18,1.172,4.717,4.365
706.0,,,11822112.136,-0.55,1.184,2.699,4.2,1.175,1.18,4.697,4.398
709.0,,,11871913.126,-0.55,1.191,2.699,4.2,1.167,1.165,4.67,4.336
712.0,,,11921637.391,-0.55,1.181,2.699,4.2,1.174,1.172,4.692,4.366
715.0,,,11971210.529,-0.55,1.195,2.699,4.2,1.159,1.159,4.643,4.308
718.0,,,12020909.603,-0.55,1.188,2.699,4.2,1.164,1.16,4.656,4.31
721.0,,,12070557.85,-0.55,1.197,2.699,4.2,1.159,1.164,4.644,4.332
724.0,,,12120201.713,-0.55,1.189,2.699,4.2,1.159,1.162,4.639,4.324
727.0,,,12169823.442,-0.55,1.183,2.699,4.199,1.165,1.172,4.659,4.367
730.0,,,12219646.105,-0.55,1.179,2.699,4.199,1.176,1.179,4.695,4.398
733.0,,,12269510.033,-0.55,1.171,2.699,4.199,1.18,1.183,4.71,4.413
736.0,,,12320415.509,-0.55,1.192,2.699,4.2,1.177,1.181,4.709,4.396
739.0,,,12370447.455,-0.55,1.207,2.699,4.2,1.171,1.17,4.687,4.348
742.0,,,12420386.06,-0.55,1.184,2.699,4.2,1.176,1.173,4.702,4.366
745.0,,,12470135.83,-0.55,1.2,2.699,4.2,1.164,1.161,4.659,4.312
748.0,,,12510939.49,-0.55,1.174,2.699,4.2,1.162,1.162,4.651,4.323
751.0,,,12560578.457,-0.55,1.178,2.699,4.2,1.163,1.154,4.651,4.286
754.0,,,12610025.107,-0.55,1.21,2.699,4.2,1.148,1.153,4.602,4.281
757.0,,,12659413.876,-0.55,1.193,2.699,4.2,1.149,1.15,4.605,4.272
760.0,,,12708786.406,-0.55,1.189,2.699,4.2,1.152,1.16,4.615,4.316
763.0,,,12758048.158,-0.55,1.197,2.699,4.2,1.149,1.147,4.603,4.26
766.0,,,12807395.978,-0.55,1.179,2.699,4.2,1.159,1.162,4.638,4.324
769.0,,,12856976.435,-0.55,1.177,2.699,4.199,1.167,1.169,4.664,4.353
772.0,,,12906648.477,-0.55,1.181,2.699,4.199,1.171,1.172,4.678,4.368
775.0,,,12956348.876,-0.55,1.165,2.699,4.199,1.171,1.174,4.677,4.376
778.0,,,13005850.074,-0.55,1.191,2.699,4.2,1.152,1.153,4.614,4.287
781.0,,,13055203.37,-0.55,1.178,2.699,4.2,1.155,1.162,4.622,4.324
784.0,,,13104335.529,-0.55,1.198,2.699,4.2,1.145,1.144,4.586,4.248
787.0,,,13153547.36,-0.55,1.179,2.699,4.2,1.157,1.152,4.63,4.285
790.0,,,13202526.511,-0.55,1.198,2.699,4.2,1.139,1.138,4.566,4.22
793.0,,,13251732.109,-0.55,1.186,2.699,4.2,1.148,1.141,4.596,4.235
796.0,,,13300737.032,-0.55,1.203,2.699,4.2,1.136,1.141,4.553,4.235
799.0,,,13350808.532,-0.55,1.188,2.699,4.2,1.164,1.164,4.658,4.329
802.0,,,13400571.487,-0.55,1.182,2.699,4.199,1.168,1.168,4.671,4.347
805.0,,,13445683.917,-0.55,0.675,2.699,4.196,0.975,0.983,3.856,3.621
808.0,,,13490950.02,-0.55,1.182,2.699,4.199,1.171,1.17,4.679,4.358
811.0,,,13540492.776,-0.55,1.203,2.699,4.2,1.153,1.15,4.616,4.271
814.0,,,13589568.912,-0.55,1.196,2.699,4.2,1.139,1.149,4.567,4.268
817.0,,,13638570.256,-0.55,1.203,2.699,4.2,1.132,1.131,4.541,4.194
820.0,,,13687497.241,-0.55,1.195,2.699,4.2,1.138,1.141,4.563,4.239
823.0,,,13736175.994,-0.55,1.202,2.699,4.2,1.12,1.121,4.5,4.151
826.0,,,13784848.537,-0.55,1.21,2.699,4.2,1.135,1.127,4.549,4.18
829.0,,,13833450.052,-0.55,1.209,2.699,4.2,1.121,1.121,4.503,4.15
832.0,,,13882176.638,-0.55,1.206,2.699,4.2,1.126,1.122,4.518,4.157
835.0,,,13930815.483,-0.55,1.207,2.699,4.2,1.12,1.126,4.498,4.176
838.0,,,13979693.03,-0.55,1.187,2.699,4.2,1.137,1.139,4.553,4.231
841.0,,,14028702.152,-0.55,1.201,2.699,4.2,1.141,1.143,4.57,4.25
844.0,,,14077772.725,-0.55,1.19,2.699,4.2,1.144,1.146,4.58,4.259
847.0,,,14127190.467,-0.55,1.198,2.699,4.2,1.124,1.125,4.53,4.167
850.0,,,14167725.237,0.0,1.23,3.238,4.2,1.1,0.0,4.418,0.0
853.0,,,14209520.255,-0.55,1.186,2.699,4.199,1.134,1.144,4.542,4.251
856.0,,,14258162.326,-0.55,1.198,2.699,4.2,1.128,1.126,4.523,4.179
859.0,,,14306764.887,-0.55,1.182,2.699,4.2,1.137,1.131,4.55,4.197
862.0,,,14355273.041,-0.55,1.194,2.699,4.2,1.122,1.119,4.498,4.149
865.0,,,14403888.394,-0.55,1.198,2.699,4.2,1.126,1.122,4.515,4.162
868.0,,,14452419.759,-0.55,1.192,2.699,4.2,1.12,1.126,4.494,4.179
871.0,,,14501276.047,-0.55,1.181,2.699,4.2,1.138,1.141,4.556,4.24
874.0,,,14550259.725,-0.55,1.177,2.699,4.199,1.145,1.147,4.582,4.266
877.0,,,14599365.36,-0.55,1.172,2.699,4.199,1.146,1.149,4.584,4.278
880.0,,,14648412.719,-0.55,1.175,2.699,4.199,1.15,1.142,4.597,4.249
883.0,,,14696985.339,-0.55,1.195,2.699,4.2,1.123,1.122,4.501,4.159
886.0,,,14745701.977,-0.55,1.194,2.699,4.2,1.131,1.12,4.531,4.153
889.0,,,14794109.439,-0.55,1.201,2.699,4.2,1.115,1.118,4.472,4.142
892.0,,,14842450.13,-0.55,1.21,2.699,4.2,1.114,1.114,4.469,4.129
895.0,,,14890732.762,-0.55,1.205,2.699,4.2,1.114,1.122,4.469,4.165
898.0,,,14939020.055,-0.55,1.202,2.699,4.2,1.113,1.112,4.467,4.122
901.0,,,14987583.991,-0.55,1.208,2.699,4.2,1.094,1.099,4.416,4.063
904.0,,,15036133.925,-0.55,1.201,2.699,4.2,1.124,1.124,4.507,4.171
907.0,,,15084854.236,-0.55,1.192,2.699,4.2,1.13,1.132,4.527,4.203
910.0,,,15133610.357,-0.55,1.186,2.699,4.2,1.133,1.134,4.537,4.213
913.0,,,15177746.341,-0.55,1.181,2.699,4.199,1.138,1.134,4.554,4.216
916.0,,,15226284.085,-0.55,1.196,2.699,4.2,1.113,1.107,4.467,4.101
919.0,,,15274452.493,-0.55,1.207,2.699,4.2,1.107,1.116,4.445,4.14
922.0,,,15322665.062,-0.55,1.202,2.699,4.2,1.105,1.105,4.436,4.095
925.0,,,15365979.72,-0.55,1.197,2.699,4.2,1.102,1.106,4.426,4.101
928.0,,,15414111.978,-0.55,1.195,2.699,4.2,1.104,1.104,4.433,4.092
931.0,,,15462164.274,-0.55,1.191,2.699,4.2,1.107,1.116,4.441,4.141
934.0,,,15510257.837,-0.55,1.196,2.699,4.2,1.104,1.106,4.429,4.097
937.0,,,15558326.494,-0.55,1.192,2.699,4.2,1.114,1.117,4.467,4.146
940.0,,,15606763.468,-0.55,1.185,2.699,4.2,1.123,1.125,4.497,4.18
943.0,,,15655332.776,-0.55,1.177,2.699,4.199,1.127,1.13,4.512,4.198
946.0,,,15703982.782,-0.55,1.183,2.699,4.199,1.131,1.131,4.526,4.206
949.0,,,15752441.402,-0.55,1.195,2.699,4.2,1.112,1.109,4.459,4.111
952.0,,,15800553.737,-0.55,1.192,2.699,4.2,1.104,1.115,4.433,4.138
955.0,,,15848739.456,-0.55,1.192,2.699,4.2,1.106,1.105,4.438,4.097
958.0,,,15896790.87,-0.55,1.183,2.699,4.2,1.11,1.116,4.45,4.143
961.0,,,15944686.962,-0.55,1.201,2.699,4.2,1.103,1.101,4.426,4.079
964.0,,,15992733.447,-0.55,1.199,2.699,4.2,1.114,1.111,4.466,4.122
967.0,,,16116594.73,-0.55,1.215,2.699,4.2,1.091,1.097,4.381,4.06
970.0,,,16164325.554,-0.55,1.188,2.699,4.2,1.104,1.109,4.43,4.114
973.0,,,16212497.791,-0.55,1.185,2.699,4.2,1.113,1.115,4.46,4.139
976.0,,,16261544.215,-0.55,1.199,2.699,4.2,1.109,1.11,4.455,4.113
979.0,,,16309447.588,-0.55,1.212,2.699,4.2,1.092,1.091,4.392,4.031
982.0,,,16357397.436,-0.55,1.194,2.699,4.2,1.111,1.099,4.457,4.069
985.0,,,16404793.664,-0.55,1.218,2.699,4.2,1.075,1.075,4.326,3.968
988.0,,,16452499.822,-0.55,1.197,2.699,4.2,1.092,1.077,4.383,3.977
991.0,,,16499823.309,-0.55,1.204,2.699,4.2,1.074,1.077,4.323,3.977
994.0,,,16547658.083,-0.55,1.192,2.699,4.2,1.098,1.101,4.406,4.078
997.0,,,16595756.768,-0.55,1.191,2.699,4.2,1.106,1.109,4.434,4.112
1000.0,,,16643990.443,-0.55,1.191,2.699,4.2,1.11,1.112,4.45,4.124
1003.0,,,16692335.833,-0.55,1.185,2.699,4.2,1.114,1.116,4.463,4.141
1006.0,,,16739828.001,-0.55,1.207,2.699,4.2,1.077,1.079,4.333,3.985
1009.0,,,16787069.58,-0.55,1.209,2.699,4.2,1.072,1.071,4.314,3.955
1012.0,,,16834180.521,-0.55,1.231,2.699,4.2,1.071,1.071,4.31,3.957
1015.0,,,16881236.406,-0.55,1.212,2.699,4.2,1.067,1.066,4.295,3.935
1018.0,,,16928294.602,-0.55,1.212,2.699,4.2,1.067,1.066,4.292,3.933
1021.0,,,16975305.522,-0.55,1.2,2.699,4.2,1.064,1.065,4.283,3.932
1024.0,,,17022750.772,-0.55,1.214,2.699,4.2,1.051,1.074,4.249,3.964
1027.0,,,17070200.75,-0.55,1.212,2.699,4.2,1.071,1.068,4.31,3.939
1030.0,,,17115534.156,-0.55,1.226,3.262,4.2,1.065,0.788,4.287,2.992
1033.0,,,17161392.892,-0.55,1.215,2.699,4.2,1.062,1.059,4.277,3.903
1036.0,,,17208362.831,-0.55,1.205,2.699,4.2,1.061,1.063,4.271,3.921
1039.0,,,17255481.307,-0.55,1.208,2.699,4.2,1.064,1.066,4.283,3.932
1042.0,,,17302408.137,-0.55,1.213,2.699,4.2,1.059,1.061,4.263,3.913
1045.0,,,17349318.659,-0.55,1.21,2.699,4.2,1.058,1.058,4.26,3.903
1048.0,,,17396146.497,-0.55,1.21,2.699,4.2,1.055,1.057,4.249,3.9
1051.0,,,17442864.938,-0.55,1.218,2.699,4.2,1.054,1.054,4.244,3.885
1054.0,,,17489508.44,-0.55,1.215,2.699,4.2,1.049,1.048,4.228,3.861
1057.0,,,17536022.245,-0.55,1.232,2.699,4.2,1.042,1.043,4.2,3.84
1060.0,,,17582472.813,-0.55,1.216,2.699,4.2,1.042,1.043,4.2,3.84
1063.0,,,17628953.668,-0.55,1.235,2.699,4.2,1.041,1.043,4.198,3.844
1066.0,,,17675386.938,-0.55,1.228,2.699,4.2,1.037,1.038,4.184,3.822
1069.0,,,17721680.995,-0.55,1.208,2.699,4.2,1.034,1.04,4.17,3.828
1072.0,,,17750756.572,-0.55,1.2,2.699,4.2,0.425,1.049,1.763,3.868
1075.0,,,17796991.985,-0.55,1.258,2.699,4.2,1.039,1.039,4.185,3.827
1078.0,,,17843261.345,-0.55,1.28,2.699,4.2,1.043,1.043,4.198,3.846
1081.0,,,17889455.922,-0.55,1.247,2.699,4.2,1.035,1.036,4.171,3.819
1084.0,,,17935743.546,-0.55,1.246,2.699,4.2,1.04,1.038,4.185,3.824
1087.0,,,17981883.042,-0.55,1.241,2.699,4.2,1.034,1.035,4.167,3.813
1090.0,,,18028234.001,-0.55,1.239,2.699,4.2,1.049,1.045,4.219,3.852
1093.0,,,18074772.726,-0.55,1.234,2.699,4.2,1.047,1.047,4.21,3.862
1096.0,,,18121399.752,-0.55,1.238,2.699,4.2,1.048,1.048,4.213,3.868
1099.0,,,18167984.313,-0.55,1.25,2.699,4.2,1.045,1.051,4.204,3.88
1102.0,,,18214709.556,-0.55,1.264,2.699,4.2,1.048,1.044,4.214,3.851
1105.0,,,18261025.188,-0.55,1.268,2.699,4.2,1.033,1.04,4.162,3.834
1108.0,,,18307256.152,-0.55,1.252,2.699,4.2,1.031,1.033,4.152,3.806
1111.0,,,18353519.173,-0.55,1.241,2.699,4.2,1.034,1.036,4.165,3.819
1114.0,,,18394607.54,-0.55,1.259,2.699,4.2,1.031,1.031,4.153,3.799
1117.0,,,18440975.698,-0.55,1.248,2.699,4.2,1.038,1.039,4.18,3.83
1120.0,,,18487303.507,-0.55,1.24,2.699,4.2,1.034,1.035,4.164,3.813
1123.0,,,18524183.736,-0.675,1.241,2.699,4.2,1.015,1.02,4.089,3.727
1126.0,,,18565620.934,-0.674,1.241,2.699,4.2,1.009,1.012,4.066,3.695
1129.0,,,18607038.936,-0.674,1.255,2.699,4.2,1.005,1.003,4.052,3.663
1132.0,,,18648327.383,-0.674,1.263,2.699,4.2,0.996,0.998,4.019,3.645
1135.0,,,18684544.501,-0.674,0.675,2.699,4.199,0.782,0.795,3.117,2.87
1138.0,,,18725969.399,-0.674,1.252,2.699,4.2,0.996,0.995,4.019,3.633
1141.0,,,18767184.437,-0.674,1.246,2.699,4.2,0.995,0.994,4.015,3.63
1144.0,,,18808379.475,-0.674,1.259,2.699,4.2,0.994,0.993,4.012,3.626
1147.0,,,18849424.897,-0.674,1.252,2.699,4.2,0.985,0.979,3.974,3.568
1150.0,,,18890504.174,-0.674,1.249,2.699,4.2,0.988,0.989,3.986,3.609
1153.0,,,18931693.91,-0.675,1.25,2.699,4.2,0.995,0.995,4.013,3.635
1156.0,,,18972867.292,-0.674,1.251,2.699,4.2,0.988,0.988,3.986,3.606
1159.0,,,19013934.905,-0.674,1.248,2.699,4.2,0.989,0.99,3.992,3.614
1162.0,,,19054958.702,-0.674,1.255,2.699,4.2,0.983,0.98,3.969,3.574
1165.0,,,19095921.602,-0.674,1.246,2.699,4.2,0.982,0.985,3.964,3.594
1168.0,,,19137240.671,-0.674,1.241,2.699,4.2,0.996,1.0,4.014,3.655
1171.0,,,19178395.581,-0.674,1.25,2.699,4.2,0.983,0.987,3.969,3.599
1174.0,,,19889994.118,-0.674,1.251,2.699,4.2,0.999,1.002,4.028,3.654
1177.0,,,19931313.214,-0.675,1.246,2.699,4.2,1.005,1.008,4.047,3.682
1180.0,,,19972758.353,-0.674,1.236,2.699,4.2,0.992,0.992,4.0,3.619
1183.0,,,20013973.97,-0.675,1.247,2.699,4.2,0.993,0.997,4.004,3.638
1186.0,,,20055228.824,-0.674,1.26,2.699,4.2,0.989,0.986,3.986,3.594
1189.0,,,20091271.381,-0.674,0.675,2.699,4.199,0.77,0.789,3.071,2.85
1192.0,,,20132784.872,-0.674,1.275,2.699,4.2,0.989,0.984,3.986,3.59
1195.0,,,20173894.828,-0.674,1.251,2.699,4.2,0.984,0.986,3.969,3.595
1198.0,,,20215138.901,-0.674,1.266,2.699,4.2,0.988,0.985,3.981,3.592
1201.0,,,20256149.83,-0.674,1.251,2.699,4.2,0.98,0.98,3.954,3.573
1204.0,,,20297252.922,-0.674,1.246,2.699,4.2,0.984,0.985,3.967,3.596
1207.0,,,20338319.737,-0.674,1.241,2.699,4.2,0.982,0.981,3.962,3.579
1210.0,,,20379568.499,-0.675,1.253,2.699,4.2,0.994,0.995,4.003,3.633
1213.0,,,20421032.465,-0.675,1.253,2.699,4.2,0.993,0.992,3.999,3.622
1216.0,,,20462703.039,-0.675,1.261,2.699,4.2,1.002,1.003,4.036,3.665
1219.0,,,20504049.871,-0.675,1.274,2.699,4.2,0.982,0.981,3.96,3.578
1222.0,,,20546260.927,-0.675,1.249,2.699,4.2,0.94,0.975,3.821,3.562
1225.0,,,20587875.383,-0.674,1.263,2.699,4.2,0.987,0.985,3.982,3.591
1228.0,,,20629275.518,-0.674,1.254,2.699,4.2,0.987,0.987,3.979,3.596
1231.0,,,20670676.82,-0.674,1.241,2.699,4.2,0.986,0.984,3.974,3.587
1234.0,,,20711961.439,-0.674,1.249,2.699,4.2,0.985,0.984,3.973,3.588
1237.0,,,20753244.595,-0.674,1.248,2.699,4.2,0.98,0.979,3.953,3.566
1240.0,,,20795007.929,-0.674,1.242,2.699,4.2,1.001,1.002,4.032,3.659
1243.0,,,20836676.312,-0.674,1.247,2.699,4.2,0.99,0.988,3.989,3.604
1246.0,,,20878347.632,-0.675,1.263,2.699,4.2,0.999,0.993,4.021,3.621
1249.0,,,20919607.882,-0.674,1.24,2.699,4.2,0.977,0.978,3.942,3.561
1252.0,,,20961010.273,-0.675,1.258,2.699,4.2,0.982,0.985,3.962,3.59
1255.0,,,21002430.274,-0.674,1.264,2.699,4.2,0.978,0.979,3.945,3.565
1258.0,,,21043795.432,-0.675,1.249,2.699,4.2,0.977,0.975,3.942,3.551
1261.0,,,21084859.65,-0.675,1.254,2.699,4.2,0.964,0.965,3.895,3.51
1264.0,,,21125587.595,-0.675,1.291,2.699,4.2,0.958,0.959,3.869,3.485
1267.0,,,21166150.698,-0.674,1.244,2.699,4.2,0.948,0.944,3.832,3.428
1270.0,,,21206352.667,-0.674,1.273,2.699,4.2,0.939,0.941,3.799,3.414
1273.0,,,21249293.884,-0.675,1.244,2.699,4.2,1.023,1.028,4.12,3.758
1276.0,,,21292434.2,-0.675,1.237,2.699,4.2,1.012,1.008,4.072,3.674
1279.0,,,21335096.455,-0.675,1.241,2.699,4.2,1.008,1.019,4.062,3.715
1282.0,,,21377811.141,-0.675,1.253,2.699,4.2,1.0,0.998,4.031,3.635
1285.0,,,21420151.42,-0.674,1.248,2.699,4.2,0.996,1.01,4.016,3.683
1288.0,,,21455580.818,0.0,1.248,3.301,4.2,0.96,0.0,3.864,0.0
1291.0,,,21491139.534,-0.675,1.286,2.699,4.2,0.978,0.996,3.944,3.625
1294.0,,,21533139.462,-0.674,1.26,2.699,4.2,0.981,0.985,3.955,3.583
1297.0,,,21574912.001,-0.674,1.255,2.699,4.2,0.983,0.992,3.964,3.612
1300.0,,,21617320.722,-0.674,1.238,2.699,4.2,0.992,0.985,3.997,3.585
1303.0,,,21659026.572,-0.674,1.25,2.699,4.2,0.982,0.985,3.96,3.58
1306.0,,,21701317.434,-0.674,1.249,2.699,4.2,0.99,0.976,3.99,3.549
1309.0,,,21742914.476,-0.675,1.254,2.699,4.2,0.974,0.972,3.928,3.536
1312.0,,,21785323.182,-0.675,1.24,2.699,4.2,1.001,1.004,4.03,3.659
1315.0,,,21828130.618,-0.675,1.234,2.699,4.2,1.009,1.011,4.059,3.686
1318.0,,,21871068.571,-0.675,1.233,2.699,4.2,1.013,1.015,4.073,3.704
1321.0,,,21914251.922,-0.675,1.231,2.699,4.2,1.018,1.021,4.094,3.724
1324.0,,,21957247.771,-0.675,1.262,2.699,4.2,0.998,0.984,4.019,3.579
1327.0,,,21998938.291,-0.674,1.253,2.699,4.2,0.979,0.977,3.947,3.552
1330.0,,,22041153.281,-0.674,1.233,2.699,4.2,0.994,0.974,3.998,3.54
1333.0,,,22077172.334,-0.674,0.675,2.699,4.198,0.749,0.762,2.982,2.746
1336.0,,,22119683.251,-0.674,1.244,2.699,4.2,0.998,0.994,4.017,3.625
1339.0,,,22162146.168,-0.675,1.244,2.699,4.2,0.952,0.975,3.86,3.548
1342.0,,,22204842.221,-0.675,1.244,2.699,4.2,1.009,1.008,4.064,3.673
1345.0,,,22246767.529,-0.675,1.262,2.699,4.2,0.972,0.975,3.924,3.544
1348.0,,,22288903.529,-0.675,1.251,2.699,4.2,0.994,0.996,4.007,3.624
1351.0,,,22331792.766,-0.675,1.249,2.699,4.2,1.005,1.006,4.047,3.665
1354.0,,,22375111.877,-0.675,1.237,2.699,4.199,1.015,1.016,4.083,3.701
1357.0,,,22418487.159,-0.675,1.239,2.699,4.2,1.016,1.019,4.087,3.713
1360.0,,,22462120.254,-0.675,1.247,2.699,4.2,1.026,1.025,4.125,3.739
1363.0,,,22504268.68,-0.675,1.251,2.699,4.2,0.983,0.979,3.963,3.559
1366.0,,,22546956.197,-0.675,1.251,2.699,4.2,1.0,1.004,4.029,3.654
1369.0,,,22588729.68,-0.675,1.251,2.699,4.2,0.976,0.971,3.938,3.528
1372.0,,,22630937.135,-0.675,1.249,2.699,4.2,0.99,0.995,3.988,3.622
1375.0,,,22672713.25,-0.675,1.256,2.699,4.2,0.966,0.966,3.897,3.506
1378.0,,,22714597.123,-0.675,1.264,2.699,4.2,0.978,0.986,3.945,3.586
1381.0,,,22756363.069,-0.675,1.274,2.699,4.2,0.961,0.963,3.877,3.495
1384.0,,,22797960.411,-0.675,1.253,2.699,4.2,0.969,0.982,3.91,3.571
1387.0,,,22839923.417,-0.675,1.273,2.699,4.2,0.957,0.96,3.863,3.486
1390.0,,,22883248.339,-0.675,1.246,2.699,4.2,0.992,0.991,3.996,3.607
1393.0,,,22925754.593,-0.674,1.268,2.699,4.2,0.975,0.97,3.931,3.519
1396.0,,,22967507.19,-0.674,1.257,2.699,4.2,0.956,0.971,3.863,3.523
1399.0,,,23009720.094,-0.674,1.292,2.699,4.2,0.954,0.954,3.853,3.455
1402.0,,,23045717.474,-0.674,0.675,2.699,4.197,0.733,0.745,2.919,2.679
1405.0,,,23088742.785,-0.675,1.239,2.699,4.2,0.986,0.964,3.97,3.5
1408.0,,,23123120.179,-0.674,1.16,2.699,4.2,0.361,0.967,1.501,3.502
1411.0,,,23165236.047,-0.675,1.241,2.699,4.2,0.991,0.975,3.991,3.539
1414.0,,,23201458.502,-0.674,1.267,2.699,4.2,0.958,0.956,3.868,3.466
1417.0,,,23243542.014,-0.674,1.249,2.699,4.2,0.983,0.987,3.962,3.586
1420.0,,,23285058.272,-0.674,1.263,2.699,4.2,0.956,0.956,3.861,3.466
1423.0,,,23327279.018,-0.675,1.243,2.699,4.2,0.982,0.987,3.958,3.587
1426.0,,,23368909.754,-0.674,1.253,2.699,4.2,0.958,0.957,3.867,3.47
1429.0,,,23411067.774,-0.675,1.26,2.699,4.2,0.982,0.988,3.961,3.59
1432.0,,,23452808.724,-0.674,1.25,2.699,4.2,0.953,0.953,3.848,3.455
1435.0,,,23494471.586,-0.674,1.253,2.699,4.2,0.967,0.975,3.901,3.541
1438.0,,,23537340.324,-0.675,1.262,2.699,4.2,0.988,0.989,3.98,3.592
1441.0,,,23580628.586,-0.674,1.239,2.699,4.2,0.998,0.997,4.021,3.624
1444.0,,,23624001.183,-0.674,1.25,2.699,4.2,1.0,1.0,4.028,3.636
1447.0,,,23667743.173,-0.675,1.24,2.699,4.2,1.011,1.011,4.07,3.677
1450.0,,,23710163.123,-0.674,1.251,2.699,4.2,0.961,0.962,3.877,3.485
1453.0,,,23752050.615,-0.675,1.251,2.699,4.2,0.97,0.982,3.915,3.564
1456.0,,,23794460.795,-0.674,1.259,2.699,4.2,0.957,0.964,3.865,3.496
1459.0,,,23837775.56,-0.675,1.261,2.699,4.2,0.978,0.966,3.944,3.507
1462.0,,,23881232.884,-0.675,1.235,2.699,4.2,1.005,0.983,4.041,3.564
1465.0,,,23923636.554,-0.674,1.249,2.699,4.2,0.973,0.972,3.924,3.523
1468.0,,,23966882.929,-0.675,1.255,2.699,4.2,1.003,0.987,4.034,3.579
1471.0,,,24009370.235,-0.674,1.248,2.699,4.2,0.972,0.969,3.922,3.512
1474.0,,,24052327.558,-0.675,1.236,2.699,4.2,0.992,0.974,3.991,3.529
1477.0,,,24094102.865,-0.675,1.249,2.699,4.2,0.951,0.949,3.838,3.434
1480.0,,,24136847.582,-0.674,1.245,2.699,4.2,0.987,0.972,3.976,3.521
1483.0,,,24178625.305,-0.674,1.255,2.699,4.2,0.951,0.95,3.841,3.439
1486.0,,,24221224.077,-0.674,1.268,2.699,4.2,0.981,0.984,3.956,3.57
1489.0,,,24264776.51,-0.675,1.24,2.699,4.2,0.995,0.998,4.007,3.622
1492.0,,,24302910.6,-0.675,1.24,2.699,4.2,1.009,1.004,4.066,3.647
1495.0,,,24347106.398,-0.675,1.243,2.699,4.2,1.012,1.014,4.073,3.685
1498.0,,,24391409.598,-0.675,1.235,2.699,4.2,1.017,1.009,4.091,3.671
1501.0,,,24434021.992,-0.674,1.254,2.699,4.2,0.965,0.965,3.893,3.494
1504.0,,,24477460.741,-0.675,1.25,2.699,4.2,1.006,1.0,4.053,3.637
1507.0,,,24520199.885,-0.675,1.252,2.699,4.2,0.967,0.965,3.902,3.495
1510.0,,,24564405.839,-0.675,1.242,2.699,4.2,0.994,0.997,4.007,3.621
1513.0,,,24601596.768,-0.675,1.276,2.699,4.2,0.963,0.958,3.885,3.464
1516.0,,,24644332.337,-0.675,1.254,2.699,4.2,0.977,0.992,3.942,3.596
1519.0,,,24687320.526,-0.675,1.261,2.699,4.2,0.959,0.957,3.873,3.462
1522.0,,,24729938.8,-0.675,1.252,2.699,4.2,0.974,0.99,3.931,3.587
1525.0,,,24773102.863,-0.675,1.278,2.699,4.2,0.96,0.959,3.874,3.468
1528.0,,,24815891.669,-0.675,1.266,2.699,4.2,0.97,0.988,3.918,3.58
1531.0,,,24860309.135,-0.675,1.234,2.699,4.2,1.014,1.017,4.082,3.693
1534.0,,,24905242.059,-0.675,1.239,2.699,4.199,1.031,1.033,4.147,3.757
1537.0,,,24950411.665,-0.675,1.235,2.699,4.199,1.041,1.042,4.185,3.793
1540.0,,,24995715.09,-0.675,1.233,2.699,4.199,1.047,1.049,4.209,3.821
1543.0,,,25039115.188,-0.674,1.272,2.699,4.2,0.984,0.981,3.969,3.55
1546.0,,,25083417.524,-0.675,1.236,2.699,4.199,1.011,1.018,4.074,3.695
1549.0,,,25126560.915,-0.675,1.276,2.699,4.2,0.973,0.971,3.927,3.51
1552.0,,,25170447.917,-0.675,1.239,2.699,4.2,0.998,1.007,4.021,3.654
1555.0,,,25213193.593,-0.675,1.257,2.699,4.2,0.959,0.955,3.872,3.452
1558.0,,,25257370.744,-0.675,1.249,2.699,4.2,0.948,0.954,3.854,3.458
1561.0,,,25301052.988,-0.675,1.242,2.699,4.2,0.998,0.999,4.023,3.621
1564.0,,,25345647.264,-0.675,1.238,2.699,4.199,1.006,1.005,4.052,3.639
1567.0,,,25390349.171,-0.675,1.245,2.699,4.199,1.02,1.022,4.107,3.708
1570.0,,,25435350.96,-0.675,1.244,2.699,4.199,1.019,1.023,4.1,3.709
1573.0,,,25480061.801,-0.675,1.237,2.699,4.199,1.03,1.006,4.145,3.644
1576.0,,,25522854.393,-0.674,1.247,2.699,4.2,0.954,0.949,3.855,3.425
1579.0,,,25566470.314,-0.675,1.252,2.699,4.2,0.996,0.976,4.014,3.53
1582.0,,,25608506.482,-0.674,1.294,2.699,4.2,0.932,0.933,3.771,3.363
1585.0,,,25645523.494,-0.674,1.251,2.699,4.2,0.982,0.978,3.967,3.538
1588.0,,,25687530.302,-0.674,1.276,2.699,4.2,0.926,0.928,3.747,3.346
1591.0,,,25730449.281,-0.674,1.249,2.699,4.2,0.971,0.976,3.921,3.531
1594.0,,,25772428.153,-0.675,1.256,2.699,4.2,0.931,0.928,3.766,3.345
1597.0,,,25815357.803,-0.674,1.264,2.699,4.2,0.965,0.97,3.897,3.507
1600.0,,,25857098.326,-0.674,1.267,2.699,4.2,0.927,0.928,3.747,3.347
1603.0,,,25899853.909,-0.675,1.27,2.699,4.2,0.961,0.97,3.882,3.508
1606.0,,,25944221.254,-0.675,1.253,2.699,4.2,0.996,0.997,4.014,3.613
1609.0,,,25983053.721,-0.675,1.265,2.699,4.2,0.946,0.958,3.822,3.45
1612.0,,,26020925.899,-0.675,1.24,2.699,4.2,0.988,0.96,3.982,3.465
1615.0,,,26063913.537,-0.675,1.281,2.699,4.2,0.947,0.946,3.827,3.409
1618.0,,,26108210.651,-0.675,1.237,2.699,4.2,0.976,0.956,3.932,3.449
1621.0,,,26144799.065,-0.674,0.675,2.699,4.199,0.697,0.71,2.779,2.541
1624.0,,,26189317.42,-0.675,1.242,2.699,4.2,0.99,0.973,3.99,3.512
1627.0,,,26226390.533,-0.675,1.245,2.699,4.2,0.949,0.945,3.835,3.406
1630.0,,,26270435.508,-0.675,1.248,2.699,4.199,0.989,0.991,3.991,3.584
1633.0,,,26315593.631,-0.675,1.238,2.699,4.199,1.01,1.012,4.071,3.666
1636.0,,,26361040.84,-0.675,1.242,2.699,4.199,1.022,1.024,4.116,3.71
1639.0,,,26406608.074,-0.675,1.238,2.699,4.199,1.028,1.031,4.138,3.739
1642.0,,,26451703.15,-0.675,1.238,2.699,4.199,1.015,0.991,4.082,3.58
1645.0,,,26495358.877,-0.675,1.277,2.699,4.2,0.955,0.946,3.857,3.406
1648.0,,,26539856.598,-0.675,1.262,2.699,4.2,0.975,0.947,3.93,3.408
1651.0,,,26582436.834,-0.675,1.263,2.699,4.2,0.929,0.925,3.758,3.327
1654.0,,,26626460.132,-0.674,1.251,2.699,4.2,0.962,0.937,3.881,3.373
1657.0,,,26668860.748,-0.675,1.261,2.699,4.2,0.925,0.924,3.742,3.323
1660.0,,,26713032.103,-0.675,1.269,2.699,4.2,0.952,0.969,3.853,3.495
1663.0,,,26757086.731,-0.674,1.277,2.699,4.2,0.945,0.945,3.821,3.4
1666.0,,,26797751.705,-0.674,1.244,3.249,4.199,1.016,0.09,4.093,0.362
1669.0,,,26834340.701,-0.675,1.248,2.699,4.2,0.956,0.982,3.867,3.542
1672.0,,,26878126.332,-0.675,1.274,2.699,4.2,0.945,0.942,3.817,3.387
1675.0,,,26921452.285,-0.675,1.268,2.699,4.2,0.951,0.972,3.846,3.504
1678.0,,,26965293.639,-0.675,1.261,2.699,4.2,0.941,0.944,3.804,3.396
1681.0,,,27008856.244,-0.675,1.255,2.699,4.2,0.957,0.976,3.87,3.52
1684.0,,,27046601.444,-0.674,1.272,2.699,4.2,0.955,0.934,3.86,3.359
1687.0,,,27090070.543,-0.675,1.264,2.699,4.2,0.938,0.957,3.795,3.447
1690.0,,,27135162.736,-0.674,1.242,2.699,4.199,0.995,0.999,4.015,3.609
1693.0,,,27180581.286,-0.675,1.244,2.699,4.199,1.012,1.014,4.08,3.671
1696.0,,,27226216.048,-0.675,1.256,2.699,4.199,1.023,1.024,4.119,3.711
1699.0,,,27271934.658,-0.675,1.253,2.699,4.199,1.032,1.031,4.155,3.736
1702.0,,,27316290.926,-0.674,1.271,2.699,4.2,0.953,0.95,3.852,3.415
1705.0,,,27360207.539,-0.675,1.264,2.699,4.2,0.978,0.987,3.951,3.563
1708.0,,,27404178.506,-0.674,1.26,2.699,4.2,0.94,0.936,3.803,3.36
1711.0,,,27448000.153,-0.675,1.255,2.699,4.2,0.963,0.973,3.893,3.506
1714.0,,,27491133.122,-0.674,1.265,2.699,4.2,0.926,0.924,3.748,3.318
1717.0,,,27534874.961,-0.675,1.275,2.699,4.2,0.91,0.911,3.701,3.277
1720.0,,,27578804.099,-0.674,1.252,2.699,4.2,0.959,0.964,3.876,3.471
1723.0,,,27621132.876,-0.674,1.262,2.699,4.2,0.912,0.912,3.696,3.271
1726.0,,,27664561.119,-0.675,1.257,2.699,4.2,0.95,0.956,3.842,3.441
1729.0,,,27709495.005,-0.675,1.256,2.699,4.2,0.983,0.984,3.969,3.548
1732.0,,,27754522.945,-0.674,1.247,2.699,4.199,0.996,0.997,4.017,3.599
1735.0,,,27799985.888,-0.675,1.264,2.699,4.199,1.004,1.005,4.049,3.631
1738.0,,,27845498.17,-0.675,1.251,2.699,4.199,1.01,1.0,4.074,3.615
1741.0,,,27889091.883,-0.675,1.275,2.699,4.2,0.934,0.936,3.78,3.359
1744.0,,,27933487.356,-0.675,1.259,2.699,4.199,0.98,0.968,3.958,3.488
1747.0,,,27969881.761,-0.674,0.675,2.699,4.199,0.664,0.677,2.647,2.417
1750.0,,,28014364.807,-0.675,1.269,2.699,4.2,0.963,0.968,3.892,3.484
1753.0,,,28057468.874,-0.675,1.281,2.699,4.2,0.918,0.919,3.717,3.295
1756.0,,,28101511.896,-0.675,1.256,2.699,4.2,0.964,0.967,3.898,3.482
1759.0,,,28137593.166,-0.674,0.675,2.699,4.198,0.647,0.661,2.583,2.356
1762.0,,,28181676.487,-0.675,1.265,2.699,4.2,0.949,0.956,3.838,3.44
1765.0,,,28224326.35,-0.674,1.256,2.699,4.2,0.906,0.904,3.672,3.239
1768.0,,,28268797.297,-0.675,1.261,2.699,4.2,0.943,0.953,3.817,3.433
1771.0,,,28312714.589,-0.674,1.265,2.699,4.2,0.928,0.923,3.755,3.309
1774.0,,,28356119.092,-0.674,1.259,2.699,4.2,0.926,0.945,3.754,3.392
1777.0,,,28399679.011,-0.674,1.271,2.699,4.2,0.909,0.901,3.683,3.227
1780.0,,,28442236.889,-0.675,1.308,2.699,4.2,0.907,0.928,3.682,3.33
1783.0,,,28485483.645,-0.675,1.28,2.699,4.2,0.901,0.898,3.651,3.213
1786.0,,,28528553.021,-0.675,1.278,2.699,4.2,0.916,0.936,3.713,3.36
1789.0,,,28572284.607,-0.675,1.258,2.699,4.2,0.912,0.909,3.694,3.256
1792.0,,,28615169.533,-0.674,1.31,2.699,4.2,0.909,0.929,3.687,3.331
1795.0,,,28660101.578,-0.675,1.264,2.699,4.199,0.964,0.969,3.896,3.484
1798.0,,,28691421.894,-0.675,1.263,2.699,4.199,0.987,0.976,3.993,3.515
1801.0,,,28737060.517,-0.675,1.273,2.699,4.199,0.99,0.992,3.998,3.574
1804.0,,,28775849.76,-0.675,1.251,2.699,4.199,0.994,0.985,4.018,3.55
1807.0,,,28820973.22,-0.675,1.289,2.699,4.2,0.958,0.936,3.87,3.353
1810.0,,,28863847.167,-0.675,1.276,2.699,4.2,0.898,0.906,3.639,3.235
1813.0,,,28907896.704,-0.675,1.277,2.699,4.2,0.918,0.902,3.717,3.227
1816.0,,,28950064.199,-0.675,1.264,2.699,4.2,0.885,0.889,3.59,3.174
1819.0,,,28992130.618,-0.674,1.299,2.699,4.2,0.872,0.881,3.535,3.155
1822.0,,,29029531.256,-0.675,1.259,2.699,4.2,0.947,0.946,3.833,3.401
1825.0,,,29074650.114,-0.675,1.258,2.699,4.199,0.97,0.968,3.919,3.478
1828.0,,,29120028.892,-0.675,1.265,2.699,4.2,0.975,0.977,3.941,3.515
1831.0,,,29165603.928,-0.675,1.257,2.699,4.199,0.983,0.983,3.969,3.54
1834.0,,,29209888.337,-0.675,1.266,2.699,4.2,0.919,0.905,3.722,3.234
1837.0,,,29251968.82,-0.675,1.269,2.699,4.2,0.878,0.899,3.564,3.213
1840.0,,,29295629.992,-0.675,1.253,2.699,4.2,0.903,0.889,3.657,3.177
1843.0,,,29337149.646,-0.675,1.302,2.699,4.2,0.868,0.885,3.523,3.158
1846.0,,,29380491.05,-0.674,1.272,2.699,4.2,0.89,0.877,3.606,3.133
1849.0,,,29415364.529,-0.675,1.226,2.699,4.2,0.872,0.857,3.54,3.063
1852.0,,,29458372.23,-0.675,1.251,2.699,4.2,0.907,0.879,3.667,3.14
1855.0,,,29499111.43,-0.675,1.301,2.699,4.2,0.854,0.851,3.469,3.039
1858.0,,,29541802.841,-0.675,1.272,2.699,4.199,0.91,0.89,3.683,3.183
1861.0,,,29582439.003,-0.675,1.225,2.699,4.2,0.848,0.847,3.444,3.022
1864.0,,,29624978.989,-0.675,1.265,2.699,4.2,0.914,0.92,3.702,3.297
1867.0,,,29669702.772,-0.675,1.282,2.699,4.2,0.855,0.852,3.494,3.055
1870.0,,,29706966.357,-0.675,1.289,2.699,4.2,0.934,0.936,3.782,3.358
1873.0,,,29748495.821,-0.675,1.287,2.699,4.2,0.858,0.854,3.485,3.049
1876.0,,,29790998.398,-0.675,1.239,2.699,4.2,0.909,0.916,3.686,3.279
1879.0,,,29831520.144,-0.675,1.273,2.699,4.2,0.843,0.841,3.425,3.0
1882.0,,,29873268.99,-0.675,1.266,2.699,4.2,0.891,0.901,3.614,3.223
1885.0,,,29914067.615,-0.675,1.288,2.699,4.2,0.839,0.84,3.41,2.994
1888.0,,,29955069.661,-0.675,1.283,2.699,4.2,0.873,0.891,3.546,3.186
1891.0,,,29996546.241,-0.674,1.268,2.699,4.2,0.84,0.837,3.413,2.985
1894.0,,,30030295.874,-0.675,1.273,2.699,4.2,0.835,0.848,3.396,3.026
1897.0,,,30074032.621,-0.675,1.262,2.699,4.199,0.916,0.919,3.714,3.291
1900.0,,,30111046.449,-0.675,0.674,2.699,4.197,0.653,0.668,2.602,2.382
1903.0,,,30156391.977,-0.675,1.257,2.699,4.199,0.946,0.947,3.827,3.396
1906.0,,,30201514.433,-0.674,1.29,2.699,4.199,0.957,0.959,3.868,3.441
1909.0,,,30245644.081,-0.675,1.254,2.699,4.2,0.897,0.88,3.636,3.138
1912.0,,,30287189.797,-0.675,1.284,2.699,4.2,0.854,0.871,3.47,3.101
1915.0,,,30330479.773,-0.674,1.263,2.699,4.2,0.878,0.863,3.563,3.077
1918.0,,,30365479.735,-0.675,0.674,2.699,4.197,0.592,0.623,2.367,2.211
1921.0,,,30408341.838,-0.675,1.315,2.699,4.2,0.86,0.847,3.493,3.014
1924.0,,,30442337.55,-0.674,1.287,2.699,4.2,0.844,0.833,3.434,2.968
1927.0,,,30486207.585,-0.675,1.298,2.699,4.2,0.912,0.917,3.697,3.277
1930.0,,,30531060.951,-0.675,1.282,2.699,4.199,0.937,0.94,3.794,3.367
1933.0,,,30576318.163,-0.675,1.287,2.699,4.199,0.949,0.952,3.84,3.411
1936.0,,,30621737.177,-0.675,1.276,2.699,4.199,0.959,0.96,3.878,3.443
1939.0,,,30666438.156,-0.675,1.289,2.699,4.2,0.912,0.898,3.694,3.202
1942.0,,,30708503.448,-0.675,1.25,2.699,4.2,0.856,0.874,3.478,3.109
1945.0,,,30752104.952,-0.675,1.288,2.699,4.2,0.877,0.865,3.556,3.079
1948.0,,,30779701.539,-0.674,1.264,2.699,4.2,0.864,0.844,3.512,3.01
1951.0,,,30822875.177,-0.675,1.261,2.699,4.199,0.909,0.898,3.685,3.21
1954.0,,,30864362.121,-0.675,1.317,2.699,4.2,0.85,0.848,3.455,3.019
1957.0,,,30907195.733,-0.675,1.281,2.699,4.199,0.905,0.905,3.67,3.239
1960.0,,,30948553.915,-0.675,1.243,2.699,4.2,0.841,0.839,3.418,2.987
1963.0,,,30991036.979,-0.675,1.239,2.699,4.199,0.894,0.902,3.627,3.222
1966.0,,,31032082.847,-0.675,1.253,2.699,4.2,0.837,0.838,3.403,2.983
1969.0,,,31076521.078,-0.674,1.272,2.699,4.2,0.912,0.908,3.697,3.245
1972.0,,,31116831.557,-0.675,1.262,2.699,4.2,0.821,0.817,3.34,2.902
1975.0,,,31158396.698,-0.675,1.266,2.699,4.2,0.869,0.875,3.529,3.119
1978.0,,,31198063.913,-0.675,1.277,2.699,4.2,0.806,0.806,3.281,2.863
1981.0,,,31238342.572,-0.675,1.246,2.699,4.2,0.842,0.866,3.426,3.083
1984.0,,,31279374.653,-0.674,1.231,2.699,4.2,0.81,0.808,3.297,2.871
1987.0,,,31319657.532,-0.675,1.293,2.699,4.2,0.824,0.854,3.358,3.04
1990.0,,,31360321.273,-0.675,1.272,2.699,4.2,0.809,0.805,3.292,2.859
1993.0,,,31399501.69,-0.675,1.276,2.699,4.2,0.796,0.819,3.24,2.906
1996.0,,,31442596.184,-0.675,1.275,2.699,4.199,0.881,0.883,3.575,3.147
1999.0,,,31486640.667,-0.675,1.27,2.699,4.199,0.907,0.906,3.677,3.234
2002.0,,,31530293.871,-0.675,1.267,2.699,4.199,0.895,0.897,3.63,3.199
2005.0,,,31574823.101,-0.675,1.266,2.699,4.199,0.92,0.919,3.73,3.283
2008.0,,,31617386.694,-0.675,1.293,2.699,4.2,0.848,0.833,3.444,2.956
2011.0,,,31657693.787,-0.675,1.281,2.699,4.2,0.813,0.833,3.306,2.955
2014.0,,,31700353.093,-0.675,1.269,2.699,4.2,0.849,0.833,3.449,2.957
2016.0,,,31727609.18,-0.675,1.31,2.699,4.2,0.829,0.828,3.374,2.941