File: Li-ion_Batteries/CALCE_CX2-36_prism_LCO_25C_0-100_0.5-0.5C_f_cycle_data.csv
Cycle_Index,Start_Time,End_Time,Test_Time (s),Min_Current (A),Max_Current (A),Min_Voltage (V),Max_Voltage (V),Charge_Capacity (Ah),Discharge_Capacity (Ah),Charge_Energy (Wh),Discharge_Energy (Wh)
1.0,,,13640.301,-1.35,1.186,2.699,4.2,1.38,1.355,5.54,4.838
4.0,,,53860.826,-1.35,1.189,2.699,4.2,1.359,1.353,5.448,4.838
7.0,,,93756.174,-1.35,1.166,2.699,4.2,1.36,1.347,5.426,4.831
10.0,,,133465.792,-1.35,1.181,2.699,4.2,1.336,1.332,5.345,4.771
13.0,,,172885.647,-1.349,1.166,2.699,4.2,1.347,1.342,5.373,4.839
16.0,,,212243.046,-1.35,1.171,2.699,4.2,1.326,1.321,5.308,4.733
19.0,,,251493.095,-1.35,1.168,2.699,4.199,1.332,1.331,5.317,4.797
22.0,,,290588.081,-1.349,1.172,2.699,4.2,1.316,1.312,5.268,4.702
25.0,,,329529.966,-1.35,1.169,2.699,4.2,1.312,1.319,5.25,4.749
28.0,,,368363.058,-1.35,1.157,2.699,4.2,1.326,1.323,5.29,4.773
31.0,,,407130.804,-1.35,1.156,2.699,4.199,1.326,1.324,5.288,4.782
34.0,,,445795.736,-1.349,1.153,2.699,4.199,1.324,1.322,5.281,4.777
37.0,,,484382.234,-1.35,1.152,2.699,4.199,1.322,1.321,5.269,4.774
40.0,,,522852.048,-1.35,1.15,2.699,4.199,1.321,1.313,5.266,4.741
43.0,,,561435.591,-1.349,1.163,2.699,4.2,1.299,1.295,5.199,4.646
46.0,,,596326.509,-1.35,0.676,2.699,4.198,1.116,1.117,4.414,3.986
49.0,,,634820.144,-1.35,1.163,2.699,4.2,1.293,1.289,5.177,4.621
52.0,,,673187.535,-1.349,1.163,2.699,4.199,1.292,1.3,5.172,4.686
55.0,,,712196.013,-1.349,1.176,2.699,4.199,1.329,1.328,5.318,4.772
58.0,,,751383.657,-1.351,1.167,2.699,4.199,1.329,1.315,5.308,4.716
61.0,,,790381.584,-1.35,1.166,2.699,4.199,1.313,1.302,5.251,4.661
64.0,,,829281.081,-1.35,1.165,2.699,4.199,1.304,1.294,5.219,4.626
67.0,,,868076.099,-1.35,1.166,2.699,4.2,1.29,1.287,5.17,4.602
70.0,,,906750.236,-1.349,1.164,2.699,4.2,1.287,1.284,5.159,4.595
73.0,,,945324.69,-1.349,1.165,2.699,4.199,1.279,1.276,5.127,4.56
76.0,,,983817.014,-1.35,1.166,2.699,4.199,1.277,1.276,5.12,4.566
79.0,,,1022158.278,-1.35,1.16,2.699,4.199,1.275,1.272,5.111,4.554
82.0,,,1060457.281,-1.35,1.16,2.699,4.199,1.273,1.269,5.103,4.543
85.0,,,1098690.242,-1.351,1.16,2.699,4.199,1.269,1.266,5.087,4.531
88.0,,,1136814.563,-1.35,1.162,2.699,4.199,1.267,1.263,5.079,4.523
91.0,,,1174831.074,-1.35,1.157,2.699,4.199,1.263,1.252,5.062,4.472
94.0,,,1212866.791,-1.35,1.17,2.699,4.2,1.247,1.245,5.009,4.441
97.0,,,1238311.167,-1.35,1.164,2.699,4.199,1.259,1.257,5.052,4.499
100.0,,,1276231.997,-1.35,1.157,2.699,4.199,1.267,1.266,5.071,4.549
103.0,,,1314138.53,-1.35,1.156,2.699,4.199,1.255,1.255,5.032,4.498
106.0,,,1351965.625,-1.35,1.148,2.699,4.199,1.259,1.258,5.04,4.519
109.0,,,1389727.916,-1.35,1.152,2.699,4.199,1.247,1.244,5.0,4.448
112.0,,,1427480.181,-1.35,1.165,2.699,4.199,1.24,1.246,4.98,4.467
115.0,,,1465056.893,-1.349,1.15,2.699,4.199,1.242,1.235,4.982,4.41
118.0,,,1502588.193,-1.35,1.152,2.699,4.199,1.236,1.229,4.96,4.385
121.0,,,1540105.666,-1.35,1.146,2.699,4.199,1.247,1.244,4.994,4.469
124.0,,,1577507.617,-1.351,1.14,2.699,4.199,1.252,1.252,5.009,4.508
127.0,,,1614858.222,-1.35,1.145,2.699,4.199,1.255,1.254,5.017,4.519
130.0,,,1652189.358,-1.35,1.138,2.699,4.199,1.255,1.254,5.013,4.523
133.0,,,1689486.344,-1.351,1.136,2.699,4.199,1.257,1.254,5.022,4.525
136.0,,,1726737.653,-1.351,1.15,2.699,4.199,1.232,1.229,4.938,4.401
139.0,,,1763947.821,-1.351,1.145,2.699,4.199,1.225,1.221,4.913,4.363
142.0,,,1800999.354,-1.35,1.142,2.699,4.199,1.244,1.227,4.974,4.398
145.0,,,1838062.135,-1.35,1.147,2.699,4.199,1.224,1.223,4.907,4.38
148.0,,,1876075.919,-1.35,1.158,2.699,4.199,1.26,1.261,5.045,4.537
151.0,,,1913803.006,-1.35,1.154,2.699,4.199,1.241,1.239,4.98,4.432
154.0,,,1951436.351,-1.35,1.164,2.699,4.199,1.235,1.245,4.956,4.471
157.0,,,1988859.892,-1.349,1.155,2.699,4.199,1.234,1.225,4.948,4.378
160.0,,,2026178.089,-1.351,1.15,2.699,4.199,1.224,1.221,4.91,4.361
163.0,,,2063425.17,-1.349,1.148,2.699,4.199,1.24,1.239,4.96,4.456
166.0,,,2100588.598,-1.35,1.144,2.699,4.199,1.241,1.241,4.963,4.472
169.0,,,2137718.171,-1.35,1.143,2.699,4.199,1.244,1.241,4.973,4.473
172.0,,,2174816.943,-1.35,1.137,2.699,4.199,1.243,1.241,4.969,4.473
175.0,,,2211895.364,-1.349,1.142,2.699,4.199,1.243,1.242,4.966,4.483
178.0,,,2248789.852,-1.349,1.149,2.699,4.199,1.223,1.218,4.9,4.361
181.0,,,2285682.853,-1.35,1.151,2.699,4.199,1.217,1.211,4.883,4.331
184.0,,,2322515.044,-1.35,1.134,2.699,4.199,1.233,1.215,4.931,4.356
187.0,,,2359424.785,-1.35,1.16,2.699,4.199,1.21,1.208,4.855,4.324
190.0,,,2396226.641,-1.35,1.14,2.699,4.199,1.224,1.224,4.9,4.405
193.0,,,2432955.572,-1.35,1.152,2.699,4.199,1.207,1.208,4.842,4.326
196.0,,,2469921.756,-1.35,1.161,2.699,4.199,1.202,1.224,4.846,4.382
199.0,,,2507357.801,-1.349,1.143,2.699,4.199,1.249,1.233,4.995,4.428
202.0,,,2544617.928,-1.35,1.152,2.699,4.199,1.23,1.238,4.93,4.46
205.0,,,2581762.049,-1.35,1.135,2.699,4.199,1.243,1.241,4.966,4.475
208.0,,,2618840.858,-1.35,1.134,2.699,4.199,1.242,1.24,4.96,4.475
211.0,,,2655856.057,-1.35,1.13,2.699,4.199,1.243,1.24,4.966,4.477
214.0,,,2692820.895,-1.35,1.128,2.699,4.199,1.243,1.239,4.963,4.473
217.0,,,2729745.391,-1.35,1.131,2.699,4.199,1.242,1.238,4.96,4.47
220.0,,,2766565.915,-1.35,1.133,2.699,4.199,1.238,1.224,4.945,4.408
223.0,,,2803322.535,-1.35,1.151,2.699,4.199,1.217,1.209,4.875,4.333
226.0,,,2840069.496,-1.35,1.133,2.699,4.199,1.224,1.224,4.895,4.41
229.0,,,2876657.664,-1.35,1.142,2.699,4.199,1.206,1.205,4.836,4.32
232.0,,,2909300.499,-1.35,0.676,2.699,4.197,0.993,1.005,3.943,3.559
235.0,,,2946023.213,-1.35,1.138,2.699,4.199,1.217,1.198,4.869,4.292
238.0,,,2982481.452,-1.35,1.145,2.699,4.2,1.198,1.195,4.808,4.275
241.0,,,3018879.336,-1.349,1.142,2.699,4.199,1.211,1.21,4.847,4.353
244.0,,,3055254.84,-1.35,1.141,2.699,4.199,1.193,1.194,4.787,4.277
247.0,,,3092101.738,-1.35,1.154,2.699,4.199,1.211,1.209,4.859,4.326
250.0,,,3117268.293,-1.351,1.162,2.699,4.199,1.209,1.214,4.857,4.346
253.0,,,3154432.096,-1.35,1.156,2.699,4.199,1.221,1.204,4.895,4.291
256.0,,,3187071.096,0.0,1.16,3.379,4.199,1.178,0.0,4.728,0.0
259.0,,,3215997.453,-1.351,1.171,2.699,4.199,1.196,1.196,4.806,4.267
262.0,,,3252777.366,-1.351,1.141,2.699,4.199,1.216,1.216,4.866,4.373
265.0,,,3289528.114,-1.35,1.156,2.699,4.199,1.195,1.188,4.798,4.238
268.0,,,3326111.77,-1.35,1.145,2.699,4.199,1.199,1.201,4.808,4.308
271.0,,,3358739.712,-1.35,1.152,2.699,4.199,1.191,1.181,4.786,4.21
274.0,,,3395177.383,-1.35,1.156,2.699,4.199,1.181,1.176,4.745,4.189
277.0,,,3431501.646,-1.35,1.146,2.699,4.199,1.195,1.195,4.79,4.288
280.0,,,3467821.145,-1.349,1.14,2.699,4.199,1.198,1.197,4.8,4.298
283.0,,,3500377.823,-1.349,0.676,2.699,4.198,1.003,1.01,3.978,3.587
286.0,,,3536747.566,-1.35,1.137,2.699,4.199,1.2,1.199,4.806,4.312
289.0,,,3573000.297,-1.35,1.129,2.699,4.199,1.202,1.201,4.811,4.321
292.0,,,3609218.763,-1.35,1.137,2.699,4.199,1.194,1.174,4.781,4.19
295.0,,,3645321.124,-1.351,1.146,2.699,4.199,1.176,1.17,4.723,4.177
298.0,,,3681373.137,-1.35,1.146,2.699,4.199,1.19,1.189,4.768,4.272
301.0,,,3717432.677,-1.351,1.155,2.699,4.199,1.17,1.169,4.699,4.173
304.0,,,3753329.562,-1.35,1.145,2.699,4.199,1.168,1.179,4.692,4.225
307.0,,,3789511.731,-1.35,1.156,2.699,4.199,1.154,1.176,4.661,4.19
310.0,,,3826288.932,-1.35,1.146,2.699,4.199,1.196,1.195,4.797,4.281
313.0,,,3858800.751,-1.35,1.16,2.699,4.2,1.184,1.175,4.761,4.185
316.0,,,3895265.73,-1.35,1.175,2.699,4.199,1.174,1.172,4.72,4.169
319.0,,,3931521.781,-1.35,1.15,2.699,4.199,1.187,1.185,4.76,4.247
322.0,,,3967757.86,-1.349,1.142,2.699,4.199,1.189,1.188,4.764,4.264
325.0,,,4003881.213,-1.349,1.145,2.699,4.199,1.188,1.186,4.759,4.254
328.0,,,4039956.95,-1.351,1.138,2.699,4.199,1.186,1.185,4.753,4.253
331.0,,,4075972.039,-1.35,1.133,2.699,4.199,1.185,1.185,4.747,4.254
334.0,,,4111886.124,-1.35,1.142,2.699,4.199,1.165,1.161,4.679,4.136
337.0,,,4147729.429,-1.35,1.15,2.699,4.199,1.157,1.153,4.651,4.104
340.0,,,4183696.128,-1.35,1.139,2.699,4.199,1.176,1.169,4.717,4.189
343.0,,,4219540.88,-1.35,1.154,2.699,4.199,1.156,1.15,4.65,4.094
346.0,,,4255303.479,-1.35,1.145,2.699,4.199,1.165,1.166,4.676,4.175
349.0,,,4287021.532,-1.35,0.676,2.699,4.197,0.931,0.939,3.705,3.297
352.0,,,4322830.229,-1.35,1.151,2.699,4.199,1.147,1.145,4.615,4.074
355.0,,,4358538.923,-1.35,1.14,2.699,4.199,1.167,1.153,4.683,4.116
358.0,,,4394334.013,-1.35,1.163,2.699,4.199,1.152,1.147,4.636,4.082
361.0,,,4426113.636,-1.351,1.156,2.699,4.199,1.162,1.161,4.663,4.152
364.0,,,4461813.081,-1.349,1.15,2.699,4.199,1.143,1.142,4.6,4.064
367.0,,,4497535.457,-1.351,1.158,2.699,4.199,1.141,1.152,4.594,4.111
370.0,,,4533189.014,-1.35,1.14,2.699,4.199,1.159,1.159,4.652,4.148
373.0,,,4568892.324,-1.349,1.143,2.699,4.199,1.165,1.162,4.674,4.165
376.0,,,4604533.966,-1.351,1.14,2.699,4.199,1.165,1.164,4.672,4.174
379.0,,,4640165.155,-1.35,1.134,2.699,4.199,1.165,1.165,4.669,4.181
382.0,,,4675785.679,-1.351,1.138,2.699,4.199,1.168,1.167,4.68,4.187
385.0,,,4711187.229,-1.351,1.145,2.699,4.199,1.144,1.141,4.599,4.062
388.0,,,4746619.294,-1.351,1.15,2.699,4.199,1.138,1.136,4.579,4.037
391.0,,,4782177.963,-1.351,1.138,2.699,4.199,1.16,1.15,4.654,4.117
394.0,,,4817634.898,-1.35,1.149,2.699,4.199,1.139,1.138,4.581,4.053
397.0,,,4853218.226,-1.349,1.144,2.699,4.199,1.15,1.152,4.618,4.122
400.0,,,4888786.674,-1.35,1.159,2.699,4.199,1.141,1.139,4.588,4.06
403.0,,,4924267.255,-1.35,1.147,2.699,4.199,1.137,1.133,4.575,4.032
406.0,,,4959617.81,-1.351,1.133,2.699,4.199,1.151,1.138,4.618,4.054
409.0,,,4995482.24,-1.351,1.153,2.699,4.199,1.149,1.137,4.614,4.04
412.0,,,5027039.988,-1.35,1.157,2.699,4.199,1.135,1.132,4.572,4.019
415.0,,,5062597.006,-1.351,1.15,2.699,4.199,1.133,1.127,4.56,4.002
418.0,,,5098256.71,-1.351,1.154,2.699,4.199,1.151,1.15,4.621,4.11
421.0,,,5133824.319,-1.351,1.145,2.699,4.199,1.153,1.149,4.627,4.111
424.0,,,5157945.923,-1.351,1.143,2.699,4.199,0.898,1.143,3.663,4.084
427.0,,,5193714.334,-1.351,1.14,2.699,4.199,1.159,1.159,4.651,4.15
430.0,,,5229412.977,-1.351,1.143,2.699,4.199,1.151,1.149,4.625,4.104
433.0,,,5264932.525,-1.35,1.142,2.699,4.199,1.153,1.16,4.628,4.162
436.0,,,5300455.367,-1.35,1.152,2.699,4.199,1.149,1.144,4.615,4.085
439.0,,,5332050.41,-1.349,1.141,2.699,4.199,1.151,1.146,4.618,4.098
442.0,,,5367598.629,-1.35,1.139,2.699,4.199,1.159,1.158,4.647,4.153
445.0,,,5403087.747,-1.351,1.144,2.699,4.199,1.147,1.142,4.604,4.082
448.0,,,5438450.883,-1.349,1.139,2.699,4.199,1.144,1.153,4.592,4.133
451.0,,,5473888.035,-1.351,1.146,2.699,4.199,1.143,1.14,4.592,4.07
454.0,,,5509180.889,-1.35,1.142,2.699,4.199,1.145,1.14,4.594,4.075
457.0,,,5544578.74,-1.35,1.138,2.699,4.199,1.156,1.153,4.634,4.138
460.0,,,5579992.634,-1.35,1.134,2.699,4.199,1.156,1.157,4.633,4.154
463.0,,,5615447.672,-1.35,1.129,2.699,4.199,1.161,1.161,4.648,4.172
466.0,,,5650909.492,-1.35,1.127,2.699,4.199,1.163,1.161,4.659,4.176
469.0,,,5686362.865,-1.351,1.125,2.699,4.199,1.163,1.161,4.657,4.176
472.0,,,5721779.0,-1.35,1.134,2.699,4.199,1.158,1.142,4.637,4.087
475.0,,,5753303.04,-1.349,1.142,2.699,4.199,1.158,1.144,4.649,4.093
478.0,,,5788837.452,-1.35,1.133,2.699,4.199,1.157,1.156,4.639,4.149
481.0,,,5824237.527,-1.351,1.142,2.699,4.199,1.144,1.143,4.593,4.091
484.0,,,5859504.316,-1.351,1.145,2.699,4.199,1.142,1.15,4.583,4.127
487.0,,,5894732.264,-1.351,1.139,2.699,4.199,1.14,1.136,4.576,4.063
490.0,,,5929923.683,-1.351,1.142,2.699,4.199,1.142,1.138,4.583,4.071
493.0,,,5965247.966,-1.351,1.131,2.699,4.199,1.151,1.15,4.61,4.131
496.0,,,6000486.965,-1.351,1.14,2.699,4.199,1.139,1.135,4.572,4.06
499.0,,,6035610.433,-1.351,1.142,2.699,4.199,1.141,1.146,4.576,4.114
502.0,,,6070818.962,-1.35,1.144,2.699,4.199,1.131,1.132,4.543,4.044
505.0,,,6105887.98,-1.351,1.138,2.699,4.199,1.133,1.131,4.549,4.044
508.0,,,6141078.367,-1.351,1.135,2.699,4.199,1.146,1.145,4.594,4.111
511.0,,,6176310.229,-1.351,1.136,2.699,4.199,1.149,1.148,4.605,4.123
514.0,,,6211541.965,-1.35,1.129,2.699,4.199,1.149,1.148,4.604,4.126
517.0,,,6246756.412,-1.35,1.141,2.699,4.199,1.149,1.148,4.603,4.125
520.0,,,6281966.755,-1.351,1.135,2.699,4.199,1.151,1.148,4.612,4.127
523.0,,,6317071.334,-1.35,1.133,2.699,4.199,1.148,1.133,4.597,4.055
526.0,,,6348623.135,-1.35,1.154,2.699,4.199,1.142,1.142,4.586,4.09
529.0,,,6383984.862,-1.351,1.135,2.699,4.199,1.148,1.135,4.603,4.06
532.0,,,6419203.667,-1.351,1.147,2.699,4.199,1.135,1.132,4.556,4.049
535.0,,,6454294.153,-1.351,1.135,2.699,4.199,1.145,1.145,4.59,4.111
538.0,,,6489308.95,-1.351,1.146,2.699,4.199,1.133,1.13,4.548,4.044
541.0,,,6524388.386,-1.35,1.14,2.699,4.199,1.13,1.138,4.538,4.081
544.0,,,6559521.352,-1.351,1.137,2.699,4.199,1.14,1.124,4.571,4.018
547.0,,,6594474.809,-1.351,1.144,2.699,4.199,1.124,1.114,4.513,3.971
550.0,,,6629421.994,-1.351,1.136,2.699,4.199,1.132,1.132,4.539,4.06
553.0,,,6664220.244,-1.35,1.154,2.699,4.2,1.106,1.106,4.452,3.933
556.0,,,6699053.56,-1.351,1.154,2.699,4.199,1.104,1.117,4.45,3.992
559.0,,,6733965.446,-1.351,1.135,2.699,4.199,1.129,1.127,4.532,4.04
562.0,,,6768902.252,-1.35,1.134,2.699,4.199,1.133,1.133,4.544,4.065
565.0,,,6800164.814,-1.351,1.134,2.699,4.199,1.135,1.132,4.549,4.061
568.0,,,6831390.431,-1.351,1.136,2.699,4.199,1.134,1.131,4.548,4.057
571.0,,,6866308.041,-1.35,1.133,2.699,4.199,1.133,1.132,4.543,4.062
574.0,,,6901632.776,-1.35,1.158,2.699,4.199,1.117,1.106,4.513,3.932
577.0,,,6936867.063,-1.349,1.146,2.699,4.199,1.13,1.13,4.54,4.044
580.0,,,6971851.798,-1.351,1.164,2.699,4.2,1.107,1.105,4.459,3.927
583.0,,,7006749.362,-1.35,1.174,2.699,4.2,1.099,1.108,4.426,3.948
586.0,,,7041699.738,-1.351,1.158,2.699,4.199,1.116,1.096,4.482,3.893
589.0,,,7068978.385,0.0,0.676,3.409,4.118,0.746,0.0,2.952,0.0
592.0,,,7099594.531,-1.35,1.155,2.699,4.2,1.099,1.093,4.428,3.873
595.0,,,7134498.879,-1.35,1.149,2.699,4.199,1.119,1.118,4.494,3.998
598.0,,,7169271.938,-1.349,1.171,2.699,4.2,1.096,1.091,4.416,3.87
601.0,,,7203822.182,-1.35,1.148,2.699,4.199,1.096,1.107,4.412,3.948
604.0,,,7238373.016,-1.351,1.173,2.699,4.2,1.093,1.088,4.402,3.86
607.0,,,7268931.197,-1.35,1.164,2.699,4.199,1.089,1.084,4.39,3.844
610.0,,,7303565.318,-1.35,1.156,2.699,4.199,1.106,1.105,4.447,3.947
613.0,,,7338051.409,-1.35,1.153,2.699,4.199,1.09,1.089,4.389,3.869
616.0,,,7372614.29,-1.351,1.158,2.699,4.199,1.092,1.101,4.401,3.929
619.0,,,7407222.595,-1.35,1.153,2.699,4.199,1.098,1.088,4.416,3.867
622.0,,,7441699.534,-1.351,1.162,2.699,4.199,1.092,1.089,4.396,3.872
625.0,,,7476227.887,-1.35,1.144,2.699,4.199,1.104,1.104,4.437,3.943
628.0,,,7510844.923,-1.349,1.141,2.699,4.199,1.108,1.106,4.452,3.956
631.0,,,7545519.213,-1.35,1.155,2.699,4.199,1.112,1.11,4.463,3.975
634.0,,,7580196.125,-1.351,1.144,2.699,4.199,1.112,1.111,4.465,3.975
637.0,,,7614842.73,-1.35,1.144,2.699,4.199,1.112,1.107,4.467,3.958
640.0,,,7649864.74,-1.35,1.151,2.699,4.199,1.091,1.09,4.411,3.877
643.0,,,7684940.02,-1.351,1.151,2.699,4.199,1.109,1.111,4.459,3.971
646.0,,,7719754.916,-1.35,1.157,2.699,4.199,1.091,1.089,4.393,3.869
649.0,,,7754313.505,-1.351,1.154,2.699,4.2,1.09,1.085,4.388,3.854
652.0,,,7788737.985,-1.35,1.144,2.699,4.199,1.101,1.087,4.423,3.864
655.0,,,7823102.185,-1.35,1.168,2.699,4.199,1.084,1.081,4.365,3.84
658.0,,,7857621.409,-1.351,1.157,2.699,4.199,1.097,1.097,4.411,3.917
661.0,,,7892147.466,-1.349,1.162,2.699,4.199,1.081,1.077,4.355,3.823
664.0,,,7926412.103,-1.35,1.152,2.699,4.2,1.078,1.072,4.344,3.8
667.0,,,7960645.497,-1.351,1.161,2.699,4.199,1.093,1.077,4.393,3.826
670.0,,,7994824.853,-1.35,1.151,2.699,4.199,1.077,1.074,4.341,3.814
673.0,,,8029104.551,-1.349,1.146,2.699,4.199,1.085,1.086,4.367,3.871
676.0,,,8063476.231,-1.35,1.146,2.699,4.199,1.09,1.088,4.381,3.881
679.0,,,8093925.259,-1.351,1.16,2.699,4.199,1.093,1.088,4.395,3.884
682.0,,,8128241.302,-1.351,1.144,2.699,4.199,1.092,1.091,4.391,3.895
685.0,,,8162594.14,-1.35,1.143,2.699,4.199,1.096,1.093,4.405,3.907
688.0,,,8196950.888,-1.351,1.145,2.699,4.199,1.096,1.095,4.402,3.914
691.0,,,8231895.24,-1.349,1.169,2.699,4.2,1.07,1.062,4.318,3.752
694.0,,,8266625.39,-1.351,1.15,2.699,4.2,1.089,1.087,4.383,3.873
697.0,,,8301013.028,-1.349,1.153,2.699,4.199,1.072,1.069,4.321,3.79
700.0,,,8335189.258,-1.349,1.154,2.699,4.199,1.074,1.081,4.326,3.85
703.0,,,8369356.236,-1.349,1.162,2.699,4.2,1.07,1.065,4.313,3.776
706.0,,,8403398.419,-1.35,1.159,2.699,4.199,1.068,1.066,4.302,3.784
709.0,,,8437577.816,-1.35,1.149,2.699,4.199,1.081,1.077,4.35,3.838
712.0,,,8471684.83,-1.35,1.156,2.699,4.2,1.064,1.059,4.291,3.754
715.0,,,8501657.174,-1.35,1.154,2.699,4.199,1.072,1.067,4.32,3.796
718.0,,,8535864.681,-1.35,1.153,2.699,4.199,1.078,1.067,4.337,3.793
721.0,,,8569879.819,-1.35,1.161,2.699,4.2,1.07,1.067,4.307,3.795
724.0,,,8603882.393,-1.351,1.147,2.699,4.199,1.081,1.079,4.347,3.85
727.0,,,8638016.706,-1.35,1.144,2.699,4.199,1.082,1.081,4.349,3.86
730.0,,,8672151.085,-1.35,1.15,2.699,4.199,1.085,1.084,4.359,3.874
733.0,,,8702480.712,-1.351,1.143,2.699,4.199,1.095,1.084,4.399,3.875
736.0,,,8736664.657,-1.351,1.144,2.699,4.199,1.088,1.085,4.373,3.88
739.0,,,8770835.601,-1.351,1.14,2.699,4.199,1.088,1.086,4.369,3.881
742.0,,,8805620.391,-1.35,1.163,2.699,4.199,1.082,1.087,4.355,3.88
745.0,,,8840056.849,-1.35,1.158,2.699,4.199,1.093,1.08,4.39,3.85
748.0,,,8874199.963,-1.349,1.149,2.699,4.199,1.078,1.077,4.336,3.837
751.0,,,8908368.733,-1.351,1.153,2.699,4.199,1.093,1.092,4.391,3.908
754.0,,,8942475.871,-1.35,1.148,2.699,4.199,1.077,1.074,4.33,3.83
757.0,,,8976438.703,-1.351,1.152,2.699,4.199,1.073,1.078,4.317,3.844
760.0,,,9010476.279,-1.351,1.146,2.699,4.199,1.089,1.075,4.373,3.837
763.0,,,9041333.756,-1.35,1.122,2.699,4.199,0.665,1.093,2.729,3.922
766.0,,,9075363.09,-1.35,1.17,2.699,4.199,1.063,1.076,4.285,3.845
769.0,,,9109491.972,-1.35,1.154,2.699,4.199,1.08,1.054,4.346,3.743
772.0,,,9143209.646,-1.349,1.18,2.699,4.2,1.047,1.044,4.226,3.699
775.0,,,9177012.366,-1.349,1.148,2.699,4.199,1.067,1.069,4.297,3.812
778.0,,,9210485.344,-1.35,1.156,2.699,4.2,1.039,1.038,4.194,3.674
781.0,,,9244167.749,-1.35,1.162,2.699,4.199,1.035,1.041,4.181,3.685
784.0,,,9277885.574,-1.35,1.148,2.699,4.199,1.054,1.035,4.243,3.66
787.0,,,9311471.444,-1.35,1.161,2.699,4.2,1.033,1.028,4.172,3.629
790.0,,,9344973.198,-1.35,1.161,2.699,4.2,1.022,1.019,4.133,3.59
793.0,,,9378440.153,-1.35,1.181,2.699,4.2,1.017,1.018,4.113,3.589
796.0,,,9411953.402,-1.349,1.158,2.699,4.199,1.037,1.031,4.182,3.652
799.0,,,9445327.41,-1.349,1.161,2.699,4.199,1.035,1.033,4.177,3.66
802.0,,,9478701.003,-1.35,1.17,2.699,4.199,1.035,1.034,4.176,3.669
805.0,,,9512063.12,-1.349,1.16,2.699,4.199,1.036,1.032,4.177,3.66
808.0,,,9545402.598,-1.349,1.157,2.699,4.199,1.032,1.03,4.162,3.653
811.0,,,9578692.485,-1.35,1.159,2.699,4.2,1.034,1.031,4.171,3.658
814.0,,,9612659.757,-1.349,1.153,2.699,4.199,1.052,1.047,4.242,3.724
817.0,,,9646412.617,-1.35,1.167,2.699,4.2,1.042,1.039,4.203,3.686
820.0,,,9680029.305,-1.349,1.17,2.699,4.199,1.047,1.042,4.221,3.702
823.0,,,9713521.846,-1.349,1.16,2.699,4.199,1.043,1.038,4.204,3.686
826.0,,,9746928.086,-1.35,1.161,2.699,4.199,1.039,1.036,4.19,3.677
829.0,,,9780590.517,-1.35,1.159,2.699,4.199,1.045,1.032,4.21,3.659
832.0,,,9813910.579,-1.35,1.174,2.699,4.2,1.024,1.023,4.135,3.619
835.0,,,9847272.021,-1.35,1.18,2.699,4.2,1.02,1.023,4.121,3.622
838.0,,,9880506.446,-1.349,1.164,2.699,4.199,1.023,1.017,4.129,3.595
841.0,,,9913675.724,-1.35,1.17,2.699,4.2,1.012,1.006,4.09,3.549
844.0,,,9946846.322,-1.35,1.173,2.699,4.199,1.011,1.007,4.086,3.554
847.0,,,9979945.189,-1.35,1.171,2.699,4.2,1.004,1.002,4.06,3.532
850.0,,,10012970.681,-1.35,1.184,2.699,4.2,0.999,0.997,4.04,3.512
853.0,,,10045982.38,-1.349,1.172,2.699,4.199,1.0,0.998,4.044,3.516
856.0,,,10078944.427,-1.35,1.171,2.699,4.2,1.0,0.996,4.046,3.512
859.0,,,10111858.212,-1.35,1.176,2.699,4.2,0.997,0.994,4.032,3.504
862.0,,,10144749.339,-1.35,1.187,2.699,4.199,0.996,0.995,4.029,3.505
865.0,,,10178611.932,-1.35,1.184,2.699,4.199,1.012,1.005,4.089,3.549
868.0,,,10207373.486,-1.349,0.676,2.699,4.198,0.778,0.792,3.111,2.755
871.0,,,10240879.337,-1.349,1.161,2.699,4.199,1.015,1.011,4.099,3.571
874.0,,,10269787.384,-1.35,1.169,2.699,4.2,1.016,0.996,4.109,3.506
877.0,,,10302931.239,-1.35,1.165,2.699,4.2,0.996,0.992,4.032,3.49
880.0,,,10335957.047,-1.35,1.175,2.699,4.2,0.997,0.996,4.033,3.512
883.0,,,10368847.72,-1.349,1.171,2.699,4.199,0.986,0.985,3.992,3.464
886.0,,,10401737.003,-1.349,1.171,2.699,4.199,0.989,0.987,4.003,3.475
889.0,,,10434551.488,-1.35,1.178,2.699,4.2,0.985,0.983,3.987,3.455
892.0,,,10467358.957,-1.35,1.183,2.699,4.199,0.981,0.979,3.971,3.438
895.0,,,10500108.748,-1.35,1.174,2.699,4.199,0.977,0.98,3.955,3.442
898.0,,,10533038.578,-1.35,1.17,2.699,4.199,1.0,1.0,4.039,3.535
901.0,,,10566062.258,-1.35,1.188,2.699,4.199,1.003,1.003,4.052,3.549
904.0,,,10599084.01,-1.35,1.164,2.699,4.199,1.007,1.004,4.066,3.552
907.0,,,10632115.161,-1.35,1.164,2.699,4.199,1.007,1.004,4.066,3.551
910.0,,,10665056.745,-1.35,1.167,2.699,4.199,0.98,0.98,3.966,3.447
913.0,,,10698127.336,-1.349,1.188,2.699,4.199,0.964,0.978,3.922,3.446
916.0,,,10731112.447,-1.35,1.171,2.699,4.2,0.982,0.977,3.976,3.43
919.0,,,10763976.814,-1.35,1.177,2.699,4.2,0.983,0.981,3.981,3.451
922.0,,,10796711.941,-1.35,1.189,2.699,4.2,0.985,0.98,3.986,3.449
925.0,,,10829377.85,-1.349,1.171,2.699,4.199,0.978,0.972,3.96,3.412
928.0,,,10861906.154,-1.349,1.169,2.699,4.2,0.969,0.966,3.925,3.392
931.0,,,10884750.259,0.0,0.676,3.489,3.936,0.205,0.0,0.795,0.0
934.0,,,10916523.28,-1.349,1.174,2.699,4.199,0.984,0.979,3.979,3.454
937.0,,,10944907.558,-1.35,1.178,2.699,4.199,0.992,0.976,4.017,3.437
940.0,,,10977787.718,-1.35,1.189,2.699,4.199,0.983,0.984,3.978,3.466
943.0,,,11010720.456,-1.35,1.182,2.699,4.199,0.985,0.981,3.985,3.452
946.0,,,11043646.19,-1.35,1.166,2.699,4.2,0.977,0.975,3.957,3.427
949.0,,,11076494.389,-1.349,1.176,2.699,4.199,0.983,0.979,3.978,3.445
952.0,,,11109322.554,-1.35,1.182,2.699,4.199,0.973,0.971,3.94,3.409
955.0,,,11142127.118,-1.35,1.182,2.699,4.199,0.968,0.968,3.924,3.398
958.0,,,11174936.362,-1.35,1.191,2.699,4.2,0.968,0.965,3.923,3.386
961.0,,,11207652.53,-1.35,1.185,2.699,4.199,0.964,0.962,3.909,3.373
964.0,,,11240392.95,-1.349,1.172,2.699,4.199,0.966,0.962,3.916,3.375
967.0,,,11273012.514,-1.349,1.178,2.699,4.199,0.959,0.957,3.885,3.357
970.0,,,11305646.781,-1.349,1.193,2.699,4.2,0.958,0.957,3.884,3.355
973.0,,,11338271.168,-1.35,1.17,2.699,4.199,0.955,0.954,3.871,3.343
976.0,,,11370767.34,-1.35,1.174,2.699,4.2,0.953,0.949,3.867,3.327
979.0,,,11398455.972,-1.35,0.676,2.699,4.197,0.705,0.719,2.826,2.481
982.0,,,11431997.052,-1.35,1.174,2.699,4.199,0.929,0.957,3.792,3.372
985.0,,,11465130.481,-1.349,1.181,2.699,4.2,0.981,0.977,3.971,3.437
988.0,,,11498192.037,-1.35,1.197,2.699,4.199,0.978,0.972,3.96,3.412
991.0,,,11531122.058,-1.35,1.174,2.699,4.2,0.971,0.966,3.935,3.388
994.0,,,11564040.196,-1.35,1.187,2.699,4.2,0.966,0.963,3.916,3.376
997.0,,,11596941.354,-1.35,1.182,2.699,4.2,0.961,0.956,3.898,3.346
1000.0,,,11629790.903,-1.349,1.178,2.699,4.2,0.956,0.954,3.876,3.337
1003.0,,,11657921.065,-1.35,1.182,2.699,4.2,0.966,0.95,3.919,3.326
1006.0,,,11685943.596,-1.35,0.676,2.699,4.197,0.717,0.73,2.869,2.524
1009.0,,,11714307.027,-1.349,1.178,2.699,4.2,0.961,0.955,3.896,3.347
1012.0,,,11747156.276,-1.35,1.197,2.699,4.199,0.96,0.955,3.891,3.349
1015.0,,,11779976.867,-1.349,1.179,2.699,4.199,0.96,0.96,3.888,3.369
1018.0,,,11812597.129,-1.349,1.178,2.699,4.2,0.953,0.944,3.864,3.305
1021.0,,,11845131.27,-1.349,1.198,2.699,4.199,0.951,0.947,3.856,3.317
1024.0,,,11877614.221,-1.35,1.185,2.699,4.2,0.945,0.943,3.833,3.301
1027.0,,,11905153.563,-1.35,0.675,2.699,4.196,0.695,0.709,2.784,2.445
1030.0,,,11937972.766,-1.35,1.176,2.699,4.2,0.941,0.943,3.818,3.304
1033.0,,,11971269.772,-1.349,1.185,2.699,4.2,0.964,0.955,3.906,3.356
1036.0,,,12004051.523,-1.35,1.185,2.699,4.199,0.957,0.953,3.88,3.345
1039.0,,,12036686.667,-1.349,1.181,2.699,4.199,0.96,0.957,3.888,3.363
1042.0,,,12069294.474,-1.349,1.171,2.699,4.199,0.954,0.951,3.864,3.335
1045.0,,,12101791.653,-1.35,1.183,2.699,4.199,0.947,0.945,3.837,3.312
1048.0,,,12134244.14,-1.35,1.203,2.699,4.199,0.947,0.944,3.84,3.307
1051.0,,,12166646.679,-1.35,1.175,2.699,4.2,0.937,0.936,3.804,3.272
1054.0,,,12198988.235,-1.349,1.188,2.699,4.199,0.934,0.932,3.791,3.26
1057.0,,,12231323.887,-1.35,1.176,2.699,4.199,0.937,0.935,3.802,3.275
1060.0,,,12263553.71,-1.35,1.179,2.699,4.199,0.932,0.93,3.782,3.251
1063.0,,,12295839.519,-1.35,1.173,2.699,4.199,0.937,0.935,3.799,3.274
1066.0,,,12328075.454,-1.35,1.175,2.699,4.2,0.932,0.93,3.783,3.25
1069.0,,,12360314.623,-1.349,1.179,2.699,4.2,0.925,0.925,3.755,3.23
1072.0,,,12392531.082,-1.35,1.201,2.699,4.2,0.925,0.925,3.753,3.234
1075.0,,,12424636.61,-1.349,1.192,2.699,4.199,0.921,0.918,3.738,3.203
1078.0,,,12456803.086,-1.349,1.177,2.699,4.199,0.921,0.924,3.74,3.231
1081.0,,,12489046.538,-1.35,1.18,2.699,4.199,0.927,0.924,3.758,3.23
1084.0,,,12522119.443,-1.35,1.202,2.699,4.2,0.93,0.925,3.774,3.239
1087.0,,,12554376.093,-1.35,1.171,2.699,4.199,0.928,0.924,3.769,3.227
1090.0,,,12586798.93,-1.349,1.18,2.699,4.199,0.939,0.936,3.808,3.277
1093.0,,,12619047.002,-1.35,1.197,2.699,4.199,0.924,0.921,3.751,3.216
1096.0,,,12651243.742,-1.349,1.184,2.699,4.2,0.924,0.929,3.749,3.249
1099.0,,,12683585.15,-1.35,1.193,2.699,4.2,0.929,0.927,3.768,3.244
1102.0,,,12715891.457,-1.349,1.192,2.699,4.199,0.928,0.926,3.765,3.239
1105.0,,,12748227.504,-1.349,1.176,2.699,4.199,0.935,0.926,3.792,3.247
1108.0,,,12780398.555,-1.349,1.198,2.699,4.199,0.924,0.922,3.747,3.225
1111.0,,,12812429.792,-1.349,1.182,2.699,4.199,0.91,0.913,3.698,3.188
1114.0,,,12844449.158,-1.35,1.183,2.699,4.199,0.919,0.915,3.729,3.2
1117.0,,,12876277.675,-1.35,1.2,2.699,4.2,0.904,0.901,3.671,3.144
1120.0,,,12908158.438,-1.35,1.179,2.699,4.199,0.911,0.915,3.7,3.202
1123.0,,,12940181.082,-1.35,1.199,2.699,4.199,0.914,0.911,3.708,3.183
1126.0,,,12971968.373,-1.35,1.182,2.699,4.199,0.903,0.901,3.67,3.146
1129.0,,,13003811.197,-1.349,1.187,2.699,4.199,0.903,0.895,3.667,3.122
1132.0,,,13036326.652,-1.349,1.183,2.699,4.199,0.872,0.918,3.571,3.226
1135.0,,,13068716.156,-1.35,1.206,2.699,4.2,0.932,0.915,3.78,3.198
1138.0,,,13100803.936,-1.349,1.202,2.699,4.2,0.918,0.916,3.726,3.196
1141.0,,,13133053.928,-1.35,1.18,2.699,4.199,0.923,0.926,3.746,3.238
1144.0,,,13165204.289,-1.35,1.188,2.699,4.2,0.915,0.91,3.715,3.17
1147.0,,,13197267.091,-1.349,1.179,2.699,4.199,0.909,0.91,3.692,3.177
1150.0,,,13229452.112,-1.35,1.185,2.699,4.199,0.916,0.913,3.718,3.187
1153.0,,,13261606.719,-1.349,1.188,2.699,4.2,0.91,0.909,3.697,3.171
1156.0,,,13293788.645,-1.35,1.183,2.699,4.199,0.916,0.91,3.716,3.177
1159.0,,,13325905.646,-1.35,1.184,2.699,4.2,0.91,0.911,3.693,3.184
1162.0,,,13357899.557,-1.35,1.178,2.699,4.2,0.905,0.904,3.672,3.155
1165.0,,,13389989.838,-1.35,1.183,2.699,4.2,0.908,0.905,3.685,3.158
1168.0,,,13422019.521,-1.35,1.19,2.699,4.2,0.9,0.89,3.657,3.102
1171.0,,,13453716.31,-1.35,1.177,2.699,4.199,0.885,0.894,3.599,3.116
1174.0,,,13485626.501,-1.35,1.203,2.699,4.199,0.9,0.898,3.656,3.134
1177.0,,,13517519.292,-1.35,1.183,2.699,4.199,0.895,0.882,3.635,3.069
1180.0,,,13549284.365,-1.35,1.185,2.699,4.199,0.895,0.893,3.633,3.113
1183.0,,,13581983.746,-1.349,1.182,2.699,4.199,0.907,0.901,3.683,3.145
1186.0,,,13613988.606,-1.35,1.201,2.699,4.2,0.899,0.888,3.652,3.095
1189.0,,,13645483.951,-1.35,1.223,2.699,4.199,0.882,0.884,3.586,3.078
1192.0,,,13677176.725,-1.35,1.186,2.699,4.2,0.894,0.891,3.632,3.107
1195.0,,,13708811.714,-1.35,1.19,2.699,4.199,0.888,0.886,3.608,3.088
1198.0,,,13740507.405,-1.35,1.18,2.699,4.199,0.893,0.884,3.627,3.081
1201.0,,,13771987.339,-1.349,1.187,2.699,4.199,0.89,0.883,3.615,3.078
1204.0,,,13803376.776,-1.35,1.207,2.699,4.199,0.878,0.874,3.568,3.043
1207.0,,,13834848.927,-1.35,1.195,2.699,4.199,0.886,0.887,3.599,3.091
1210.0,,,13866355.494,-1.349,1.202,2.699,4.199,0.882,0.879,3.583,3.061
1213.0,,,13897809.474,-1.35,1.198,2.699,4.199,0.878,0.877,3.568,3.052
1216.0,,,13929296.547,-1.35,1.194,2.699,4.199,0.888,0.894,3.607,3.123
1219.0,,,13961065.329,-1.35,1.187,2.699,4.199,0.902,0.902,3.658,3.15
1222.0,,,13993050.725,-1.35,1.181,2.699,4.199,0.898,0.898,3.641,3.13
1225.0,,,14019912.566,-1.35,0.675,2.699,4.195,0.65,0.664,2.6,2.286
1228.0,,,14052278.516,-1.35,1.172,2.699,4.199,0.899,0.892,3.648,3.109
1231.0,,,14084140.137,-1.35,1.178,2.699,4.199,0.885,0.89,3.595,3.098
1234.0,,,14117214.595,-1.35,1.174,2.699,4.199,0.915,0.907,3.708,3.169
1237.0,,,14149322.549,-1.349,1.187,2.699,4.199,0.903,0.901,3.663,3.14
1240.0,,,14181512.031,-1.349,1.174,2.699,4.199,0.908,0.907,3.684,3.165
1243.0,,,14213696.85,-1.35,1.187,2.699,4.2,0.903,0.901,3.664,3.137
1246.0,,,14245796.406,-1.35,1.185,2.699,4.199,0.892,0.891,3.622,3.097
1249.0,,,14277850.907,-1.35,1.182,2.699,4.199,0.895,0.889,3.633,3.095
1252.0,,,14309640.917,-1.349,1.174,2.699,4.199,0.876,0.871,3.561,3.021
1255.0,,,14341270.637,-1.35,1.176,2.699,4.199,0.872,0.878,3.545,3.05
1258.0,,,14373098.177,-1.35,1.182,2.699,4.199,0.888,0.882,3.606,3.067
1261.0,,,14404843.33,-1.349,1.183,2.699,4.199,0.874,0.873,3.552,3.034
1264.0,,,14436456.59,-1.35,1.172,2.699,4.199,0.87,0.868,3.537,3.014
1267.0,,,14467962.118,-1.349,1.189,2.699,4.2,0.872,0.865,3.54,3.003
1270.0,,,14499351.794,-1.349,1.181,2.699,4.199,0.863,0.861,3.51,2.989
1273.0,,,14530678.842,-1.35,1.186,2.699,4.2,0.859,0.865,3.494,3.006
1276.0,,,14556856.739,-1.35,0.676,2.699,4.197,0.61,0.617,2.443,2.113
1279.0,,,14588389.776,-1.35,1.172,2.699,4.2,0.858,0.855,3.487,2.966
1282.0,,,14620554.811,-1.35,1.206,2.699,4.199,0.835,0.882,3.423,3.094
1285.0,,,14652533.044,-1.349,1.18,2.699,4.199,0.894,0.888,3.629,3.099
1288.0,,,14684147.376,-1.35,1.176,2.699,4.199,0.887,0.885,3.602,3.084
1291.0,,,14715924.209,-1.35,1.174,2.699,4.199,0.893,0.893,3.623,3.114
1294.0,,,14747699.2,-1.35,1.193,2.699,4.199,0.893,0.891,3.622,3.106
1297.0,,,14779500.845,-1.35,1.178,2.699,4.199,0.886,0.891,3.594,3.104
1300.0,,,14811355.729,-1.35,1.203,2.699,4.199,0.891,0.887,3.613,3.09
1303.0,,,14843107.233,-1.35,1.185,2.699,4.199,0.881,0.875,3.577,3.044
1306.0,,,14874723.674,-1.35,1.177,2.699,4.199,0.877,0.881,3.561,3.069
1309.0,,,14906226.701,-1.35,1.182,2.699,4.199,0.87,0.868,3.535,3.015
1312.0,,,14932413.415,-1.35,0.676,2.699,4.195,0.61,0.625,2.447,2.145
1315.0,,,14964030.766,-1.35,1.176,2.699,4.199,0.86,0.857,3.496,2.977
1318.0,,,14995422.599,-1.35,1.184,2.699,4.199,0.865,0.864,3.511,3.005
1321.0,,,15026763.586,-1.35,1.204,2.699,4.199,0.86,0.856,3.496,2.975
1324.0,,,15057883.254,-1.35,1.177,2.699,4.199,0.858,0.854,3.489,2.968
1327.0,,,15088980.757,-1.35,1.18,2.699,4.199,0.857,0.854,3.483,2.968
1330.0,,,15120064.351,-1.35,1.194,2.699,4.2,0.854,0.854,3.47,2.97
1333.0,,,15152409.644,-1.35,1.185,2.699,4.199,0.891,0.882,3.616,3.074
1336.0,,,15184346.845,-1.349,1.21,2.699,4.199,0.882,0.877,3.582,3.05
1339.0,,,15216241.198,-1.349,1.18,2.699,4.199,0.882,0.879,3.58,3.061
1342.0,,,15247927.415,-1.35,1.183,2.699,4.199,0.872,0.87,3.542,3.024
1345.0,,,15279486.35,-1.35,1.185,2.699,4.199,0.867,0.866,3.521,3.013
1348.0,,,15305893.669,-1.349,0.675,2.699,4.196,0.621,0.634,2.487,2.182
1351.0,,,15337718.638,-1.35,1.181,2.699,4.199,0.869,0.865,3.53,3.01
1354.0,,,15369191.496,-1.35,1.184,2.699,4.199,0.865,0.865,3.513,3.009
1357.0,,,15400728.088,-1.35,1.183,2.699,4.199,0.873,0.868,3.542,3.021
1360.0,,,15421856.687,-1.35,1.194,2.699,4.199,0.894,0.892,3.625,3.116
1363.0,,,15453640.329,-1.35,1.18,2.699,4.199,0.883,0.882,3.582,3.074
1366.0,,,15485305.656,-1.35,1.193,2.699,4.199,0.875,0.877,3.553,3.056
1369.0,,,15517126.63,-1.35,1.186,2.699,4.199,0.885,0.881,3.59,3.073
1372.0,,,15548758.762,-1.35,1.179,2.699,4.199,0.874,0.872,3.548,3.036
1375.0,,,15575497.128,-1.35,1.203,2.699,4.199,0.879,0.866,3.571,3.018
1378.0,,,15607089.888,-1.35,1.188,2.699,4.199,0.87,0.868,3.53,3.024
1381.0,,,15638434.784,-1.349,1.181,2.699,4.199,0.863,0.86,3.506,2.99
1384.0,,,15669827.131,-1.35,1.194,2.699,4.199,0.864,0.863,3.506,3.005
1387.0,,,15701173.024,-1.349,1.185,2.699,4.199,0.859,0.856,3.489,2.977
1390.0,,,15732281.672,-1.35,1.217,2.699,4.199,0.854,0.852,3.47,2.961
1393.0,,,15763405.764,-1.35,1.181,2.699,4.199,0.853,0.851,3.466,2.959
1396.0,,,15794615.14,-1.35,1.199,2.699,4.2,0.854,0.853,3.469,2.966
1399.0,,,15825734.218,-1.35,1.182,2.699,4.199,0.852,0.851,3.463,2.958
1402.0,,,15852037.809,-1.35,1.202,2.699,4.199,0.864,0.849,3.512,2.953
1405.0,,,15878324.937,-1.349,1.21,2.699,4.199,0.857,0.85,3.481,2.958
1408.0,,,15909463.201,-1.35,1.192,2.699,4.199,0.852,0.85,3.461,2.957
1411.0,,,15941990.753,-1.35,1.188,2.699,4.199,0.877,0.868,3.557,3.027
1414.0,,,15973468.36,-1.35,1.178,2.699,4.199,0.871,0.867,3.534,3.018
1417.0,,,16005097.798,-1.35,1.185,2.699,4.199,0.872,0.871,3.54,3.031
1420.0,,,16036571.534,-1.35,1.18,2.699,4.199,0.863,0.861,3.506,2.994
1423.0,,,16067963.77,-1.35,1.19,2.699,4.199,0.859,0.857,3.49,2.978
1426.0,,,16099443.95,-1.35,1.213,2.699,4.199,0.864,0.861,3.51,2.994
1429.0,,,16120559.51,-1.35,1.205,2.699,4.199,0.88,0.875,3.569,3.039
1432.0,,,16151836.517,-1.35,1.202,2.699,4.2,0.858,0.852,3.486,2.958
1435.0,,,16182982.666,-1.349,1.181,2.699,4.199,0.849,0.848,3.448,2.944
1438.0,,,16214066.683,-1.35,1.204,2.699,4.199,0.849,0.845,3.45,2.935
1441.0,,,16245041.904,-1.35,1.188,2.699,4.199,0.843,0.841,3.427,2.919
1444.0,,,16276030.283,-1.349,1.189,2.699,4.199,0.841,0.839,3.42,2.912
1447.0,,,16306969.774,-1.349,1.198,2.699,4.2,0.842,0.838,3.423,2.906
1450.0,,,16332630.002,-1.35,0.676,2.699,4.197,0.587,0.602,2.352,2.064
1453.0,,,16364060.538,-1.349,1.207,2.699,4.199,0.841,0.837,3.419,2.905
1456.0,,,16395096.08,-1.35,1.183,2.699,4.199,0.839,0.839,3.411,2.91
1459.0,,,16426022.309,-1.349,1.192,2.699,4.199,0.834,0.832,3.391,2.884
1462.0,,,16456982.102,-1.35,1.189,2.699,4.199,0.836,0.834,3.398,2.894
1465.0,,,16487954.696,-1.35,1.188,2.699,4.199,0.833,0.83,3.388,2.875
1468.0,,,16518800.299,-1.35,1.197,2.699,4.199,0.83,0.829,3.374,2.871
1471.0,,,16549748.881,-1.35,1.194,2.699,4.199,0.833,0.834,3.387,2.89
1474.0,,,16580583.116,-1.35,1.19,2.699,4.199,0.83,0.829,3.375,2.871
1477.0,,,16611382.614,-1.35,1.221,2.699,4.199,0.829,0.829,3.369,2.871
1480.0,,,16643681.707,-1.35,1.196,2.699,4.199,0.847,0.84,3.442,2.911
1483.0,,,16675006.208,-1.35,1.216,2.699,4.199,0.837,0.832,3.403,2.88
1486.0,,,16706173.868,-1.35,1.218,2.699,4.2,0.831,0.828,3.381,2.865
1489.0,,,16737045.804,-1.35,1.195,2.699,4.199,0.825,0.822,3.358,2.845
1492.0,,,16767886.581,-1.35,1.213,2.699,4.199,0.821,0.819,3.341,2.833
1495.0,,,16798631.72,-1.35,1.204,2.699,4.199,0.82,0.816,3.337,2.823
1498.0,,,16829262.372,-1.35,1.191,2.699,4.199,0.814,0.813,3.314,2.81
1501.0,,,16859809.798,-1.35,1.191,2.699,4.199,0.813,0.811,3.308,2.804
1504.0,,,16890555.829,-1.35,1.186,2.699,4.199,0.823,0.821,3.346,2.843
1507.0,,,16921285.155,-1.35,1.199,2.699,4.199,0.818,0.815,3.33,2.82
1510.0,,,16951900.725,-1.35,1.185,2.699,4.199,0.813,0.812,3.311,2.81
1513.0,,,16982708.998,-1.35,1.217,2.699,4.199,0.82,0.819,3.334,2.836
1516.0,,,17013289.136,-1.349,1.202,2.699,4.199,0.813,0.81,3.309,2.798
1519.0,,,17043872.894,-1.35,1.199,2.699,4.199,0.812,0.809,3.307,2.799
1522.0,,,17074595.145,-1.35,1.205,2.699,4.2,0.818,0.815,3.328,2.819
1525.0,,,17105317.823,-1.35,1.205,2.699,4.199,0.815,0.813,3.315,2.811
1528.0,,,17136539.017,-1.35,1.205,2.699,4.199,0.811,0.826,3.324,2.86
1531.0,,,17167541.608,-1.35,1.196,2.699,4.199,0.816,0.811,3.321,2.803
1534.0,,,17198274.791,-1.35,1.198,2.699,4.199,0.811,0.81,3.304,2.799
1537.0,,,17229022.347,-1.35,1.21,2.699,4.199,0.813,0.806,3.31,2.785
1540.0,,,17259475.863,-1.35,1.196,2.699,4.2,0.802,0.798,3.265,2.754
1543.0,,,17289797.846,-1.35,1.204,2.699,4.199,0.798,0.796,3.251,2.746
1546.0,,,17320115.556,-1.35,1.197,2.699,4.199,0.798,0.796,3.251,2.747
1549.0,,,17350377.104,-1.349,1.199,2.699,4.199,0.797,0.794,3.248,2.739
1552.0,,,17380589.309,-1.35,1.208,2.699,4.199,0.798,0.793,3.249,2.737
1555.0,,,17410858.126,-1.35,1.191,2.699,4.2,0.796,0.793,3.242,2.736
1558.0,,,17441075.991,-1.35,1.203,2.699,4.199,0.794,0.791,3.232,2.729
1561.0,,,17471285.272,-1.35,1.193,2.699,4.199,0.796,0.793,3.24,2.738
1564.0,,,17501573.442,-1.349,1.191,2.699,4.199,0.797,0.794,3.245,2.742
1567.0,,,17531806.985,-1.35,1.196,2.699,4.199,0.792,0.79,3.225,2.725
1570.0,,,17562283.987,-1.35,1.219,2.699,4.199,0.803,0.802,3.268,2.773
1573.0,,,17593093.779,-1.35,1.188,2.699,4.199,0.813,0.825,3.309,2.859
1576.0,,,17624006.602,-1.35,1.213,2.699,4.199,0.817,0.808,3.321,2.792
1579.0,,,17656015.556,-1.35,1.185,2.699,4.199,0.833,0.823,3.388,2.85
1582.0,,,17687748.591,-1.35,1.188,2.699,4.199,0.84,0.847,3.414,2.941
1585.0,,,17719384.243,-1.35,1.212,2.699,4.199,0.825,0.816,3.355,2.819
1588.0,,,17750390.626,-1.349,1.198,2.699,4.2,0.813,0.808,3.307,2.789
1591.0,,,17781823.985,-1.35,1.196,2.699,4.199,0.842,0.844,3.423,2.929
1594.0,,,17813949.891,-1.35,1.199,2.699,4.199,0.859,0.858,3.485,2.981
1597.0,,,17841184.991,-1.35,1.191,2.699,4.199,0.866,0.865,3.514,3.01
1600.0,,,17873745.541,-1.35,1.209,2.699,4.199,0.877,0.873,3.556,3.041
1603.0,,,17906324.827,-1.35,1.199,2.699,4.199,0.878,0.878,3.558,3.057
1606.0,,,17939064.74,-1.35,1.195,2.699,4.199,0.886,0.884,3.592,3.083
1609.0,,,17971616.351,-1.35,1.218,2.699,4.199,0.861,0.835,3.494,2.886
1612.0,,,18002996.241,-1.35,1.199,2.699,4.199,0.82,0.814,3.335,2.813
1615.0,,,18020539.712,-1.35,0.675,2.699,4.192,0.012,0.771,0.052,2.633
1618.0,,,18051916.096,-1.35,1.204,2.699,4.199,0.842,0.851,3.42,2.951
1621.0,,,18083504.959,-1.35,1.197,2.699,4.199,0.835,0.822,3.39,2.839
1624.0,,,18112080.622,-1.35,1.189,2.699,4.199,0.548,0.827,2.261,2.855
1627.0,,,18143953.529,-1.35,1.187,2.699,4.199,0.844,0.845,3.427,2.93
1630.0,,,18176129.486,-1.35,1.194,2.699,4.199,0.852,0.853,3.459,2.961
1633.0,,,18208488.359,-1.35,1.208,2.699,4.199,0.862,0.858,3.498,2.979
1636.0,,,18240920.387,-1.35,1.194,2.699,4.199,0.862,0.86,3.499,2.988
1639.0,,,18273372.552,-1.35,1.197,2.699,4.199,0.864,0.863,3.504,3.001
1642.0,,,18305935.061,-1.35,1.204,2.699,4.199,0.869,0.865,3.524,3.005
1645.0,,,18337875.945,-1.35,1.209,2.699,4.199,0.825,0.811,3.354,2.796
1648.0,,,18358018.316,-1.35,0.361,2.699,4.199,0.031,0.823,0.133,2.833
1651.0,,,18389343.283,-1.35,1.203,2.699,4.199,0.823,0.825,3.347,2.855
1654.0,,,18420619.396,-1.349,1.202,2.699,4.199,0.798,0.791,3.249,2.725
1657.0,,,18451313.48,-1.35,1.203,2.699,4.199,0.787,0.783,3.205,2.695
1660.0,,,18482338.843,-1.35,1.204,2.699,4.199,0.81,0.813,3.297,2.807
1663.0,,,18507565.071,-1.35,1.196,2.699,4.199,0.788,0.773,3.214,2.659
1666.0,,,18537986.877,-1.35,1.193,2.699,4.199,0.774,0.77,3.153,2.645
1669.0,,,18568738.388,-1.35,1.217,2.699,4.199,0.798,0.801,3.249,2.765
1672.0,,,18599059.809,-1.35,1.191,2.699,4.199,0.769,0.766,3.136,2.631
1675.0,,,18629240.192,-1.349,1.197,2.699,4.2,0.765,0.758,3.119,2.599
1678.0,,,18660180.017,-1.35,1.192,2.699,4.199,0.797,0.797,3.244,2.747
1681.0,,,18690452.906,-1.35,1.211,2.699,4.199,0.763,0.759,3.113,2.603
1684.0,,,18720303.861,-1.35,1.198,2.699,4.199,0.752,0.754,3.067,2.586
1687.0,,,18751055.635,-1.349,1.191,2.699,4.199,0.792,0.793,3.225,2.732
1690.0,,,18782447.934,-1.35,1.195,2.699,4.199,0.808,0.807,3.288,2.784
1693.0,,,18814088.964,-1.349,1.206,2.699,4.199,0.817,0.814,3.324,2.808
1696.0,,,18845805.832,-1.35,1.195,2.699,4.199,0.818,0.818,3.325,2.824
1699.0,,,18878505.586,-1.349,1.205,2.699,4.199,0.798,0.779,3.249,2.674
1702.0,,,18910316.147,-1.35,1.185,2.699,4.199,0.81,0.81,3.296,2.791
1705.0,,,18941020.15,-1.35,1.194,2.699,4.199,0.767,0.757,3.127,2.592
1708.0,,,18971491.458,-1.349,1.189,2.699,4.199,0.758,0.75,3.091,2.564
1711.0,,,19002598.262,-1.35,1.191,2.699,4.199,0.791,0.777,3.22,2.668
1714.0,,,19032835.572,-1.35,1.206,2.699,4.199,0.755,0.753,3.08,2.576
1717.0,,,19057529.275,-1.35,1.192,2.699,4.199,0.746,0.735,3.047,2.51
1720.0,,,19088278.113,-1.349,1.182,2.699,4.199,0.777,0.767,3.166,2.636
1723.0,,,19118292.76,-1.35,1.188,2.699,4.199,0.747,0.744,3.05,2.546
1726.0,,,19148081.707,-1.35,1.191,2.699,4.199,0.732,0.742,2.989,2.537
1729.0,,,19178552.154,-1.35,1.182,2.699,4.199,0.766,0.748,3.119,2.558
1732.0,,,19208275.547,-1.35,1.186,2.699,4.199,0.734,0.728,2.995,2.485
1735.0,,,19237817.914,-1.35,1.18,2.699,4.199,0.723,0.737,2.954,2.517
1738.0,,,19268461.897,-1.35,1.197,2.699,4.199,0.767,0.766,3.126,2.627
1741.0,,,19299568.415,-1.35,1.197,2.699,4.199,0.779,0.778,3.177,2.671
1744.0,,,19330847.767,-1.35,1.184,2.699,4.199,0.785,0.783,3.198,2.688
1747.0,,,19362216.893,-1.35,1.191,2.699,4.199,0.786,0.785,3.203,2.694
1750.0,,,19394114.052,-1.35,1.193,2.699,4.199,0.751,0.737,3.067,2.512
1753.0,,,19425453.994,-1.35,1.195,2.699,4.199,0.779,0.77,3.178,2.638
1756.0,,,19455656.476,-1.35,1.199,2.699,4.2,0.733,0.73,2.994,2.488
1759.0,,,19485564.313,-1.35,1.193,2.699,4.199,0.719,0.722,2.938,2.458
1762.0,,,19515826.097,-1.35,1.187,2.699,4.199,0.747,0.728,3.048,2.48
1765.0,,,19545194.349,-1.35,1.181,2.699,4.199,0.708,0.705,2.897,2.395
1768.0,,,19568751.884,-1.35,1.19,2.699,4.2,0.706,0.688,2.89,2.337
1771.0,,,19598711.233,-1.35,1.182,2.699,4.199,0.733,0.723,2.994,2.467
1774.0,,,19627593.038,-1.35,1.185,2.699,4.199,0.69,0.693,2.825,2.354
1777.0,,,19656405.571,-1.35,1.178,2.699,4.199,0.691,0.693,2.828,2.351
1780.0,,,19685965.727,-1.35,1.182,2.699,4.199,0.726,0.712,2.963,2.425
1783.0,,,19714407.287,-1.35,1.184,2.699,4.199,0.679,0.676,2.781,2.291
1786.0,,,19736794.017,-1.35,0.676,2.699,4.195,0.413,0.424,1.664,1.432
1789.0,,,19765988.769,-1.35,1.183,2.699,4.199,0.699,0.703,2.857,2.39
1792.0,,,19795362.025,-1.35,1.18,2.699,4.199,0.715,0.715,2.922,2.434
1795.0,,,19825032.125,-1.351,1.18,2.699,4.199,0.723,0.723,2.951,2.462
1798.0,,,19855849.887,-1.35,1.21,2.699,4.199,0.702,0.701,2.897,2.393
1801.0,,,19885152.864,-1.35,1.181,2.699,4.199,0.69,0.694,2.822,2.355
1804.0,,,19914539.557,-1.349,1.189,2.699,4.199,0.712,0.69,2.907,2.339
1807.0,,,19943067.688,-1.35,1.184,2.699,4.2,0.676,0.673,2.77,2.279
1810.0,,,19971395.284,-1.35,1.186,2.699,4.199,0.665,0.674,2.725,2.282
1813.0,,,20000138.73,-1.35,1.187,2.699,4.199,0.691,0.674,2.825,2.283
1816.0,,,20028207.95,-1.35,1.187,2.699,4.199,0.663,0.66,2.715,2.233
1819.0,,,20050878.24,-1.349,1.209,2.699,4.199,0.658,0.646,2.695,2.183
1822.0,,,20068110.48,-1.35,1.055,2.699,4.199,0.184,0.745,0.775,2.521
1825.0,,,20097545.326,-1.35,1.191,2.699,4.199,0.719,0.717,2.938,2.435
1828.0,,,20126501.598,-1.35,1.18,2.699,4.199,0.674,0.666,2.76,2.253
1831.0,,,20154698.641,-1.35,1.172,2.699,4.199,0.663,0.656,2.716,2.219
1834.0,,,20182813.271,-1.35,1.175,2.699,4.199,0.676,0.679,2.769,2.302
1837.0,,,20211009.125,-1.35,1.175,2.699,4.199,0.65,0.642,2.662,2.168
1840.0,,,20238474.236,-1.35,1.174,2.699,4.199,0.643,0.64,2.636,2.162
1843.0,,,20266066.354,-1.35,1.169,2.699,4.199,0.657,0.664,2.693,2.249
1846.0,,,20293419.087,-1.35,1.169,2.699,4.199,0.629,0.618,2.581,2.085
1849.0,,,20319860.689,-1.35,1.172,2.699,4.199,0.615,0.611,2.524,2.06
1852.0,,,20346002.12,-1.35,1.177,2.699,4.199,0.61,0.632,2.506,2.133
1855.0,,,20373121.134,-1.35,1.182,2.699,4.199,0.638,0.609,2.614,2.053
1858.0,,,20399163.868,-1.35,1.166,2.699,4.199,0.607,0.604,2.491,2.036
1861.0,,,20424846.976,-1.35,1.164,2.699,4.199,0.592,0.593,2.43,1.994
1864.0,,,20451794.651,-1.35,1.178,2.699,4.199,0.636,0.64,2.607,2.162
1867.0,,,20479482.417,-1.35,1.174,2.699,4.199,0.655,0.654,2.683,2.212
1870.0,,,20507518.164,-1.35,1.174,2.699,4.199,0.663,0.661,2.713,2.24
1873.0,,,20536547.715,-1.35,1.174,2.699,4.199,0.666,0.648,2.726,2.191
1876.0,,,20564465.877,-1.35,1.187,2.699,4.199,0.668,0.671,2.737,2.27
1879.0,,,20592515.482,-1.35,1.168,2.699,4.199,0.643,0.632,2.636,2.131
1882.0,,,20619868.905,-1.349,1.186,2.699,4.199,0.637,0.633,2.611,2.134
1885.0,,,20647353.589,-1.349,1.183,2.699,4.199,0.647,0.651,2.651,2.2
1888.0,,,20674988.622,-1.35,1.178,2.699,4.2,0.636,0.623,2.609,2.1
1891.0,,,20702051.418,-1.349,1.178,2.699,4.199,0.63,0.623,2.583,2.099
1894.0,,,20722819.461,-1.35,0.675,2.699,4.197,0.361,0.389,1.459,1.31
1897.0,,,20750822.38,-1.349,1.192,2.699,4.199,0.648,0.65,2.655,2.199
1900.0,,,20773609.847,-1.35,1.184,2.699,4.199,0.659,0.658,2.701,2.226
1903.0,,,20801860.172,-1.35,1.191,2.699,4.199,0.665,0.664,2.725,2.248
1906.0,,,20830333.711,-1.35,1.184,2.699,4.199,0.671,0.669,2.749,2.267
1909.0,,,20858927.393,-1.35,1.18,2.699,4.199,0.673,0.672,2.755,2.277
1912.0,,,20887611.068,-1.35,1.184,2.699,4.199,0.677,0.673,2.77,2.28
1915.0,,,20916240.086,-1.35,1.175,2.699,4.199,0.677,0.673,2.773,2.278
1918.0,,,20943135.323,-1.35,1.182,2.699,4.199,0.612,0.603,2.511,2.027
1921.0,,,20969251.094,-1.35,1.175,2.699,4.199,0.596,0.591,2.447,1.984
1924.0,,,20996439.706,-1.35,1.192,2.699,4.199,0.61,0.621,2.505,2.089
1927.0,,,21023189.605,-1.35,1.175,2.699,4.199,0.601,0.581,2.467,1.947
1930.0,,,21048494.11,-1.35,1.169,2.699,4.199,0.578,0.576,2.375,1.928
1933.0,,,21068744.936,-1.351,1.159,2.699,4.199,0.574,0.561,2.359,1.878
1936.0,,,21094818.856,-1.35,1.172,2.699,4.199,0.607,0.609,2.493,2.049
1939.0,,,21119954.484,-1.35,1.198,2.699,4.199,0.566,0.563,2.327,1.888
1942.0,,,21144834.521,-1.35,1.176,2.699,4.199,0.566,0.563,2.328,1.887
1945.0,,,21169863.098,-1.35,1.186,2.699,4.199,0.579,0.593,2.38,1.993
1948.0,,,21196210.019,-1.35,1.175,2.699,4.199,0.612,0.613,2.513,2.062
1951.0,,,21222984.175,-1.35,1.17,2.699,4.199,0.622,0.621,2.55,2.091
1954.0,,,21249999.343,-1.35,1.188,2.699,4.199,0.628,0.627,2.577,2.112
1957.0,,,21277187.337,-1.35,1.173,2.699,4.199,0.63,0.629,2.583,2.12
1960.0,,,21304387.98,-1.35,1.17,2.699,4.199,0.631,0.63,2.587,2.123
1963.0,,,21331567.977,-1.35,1.181,2.699,4.199,0.631,0.631,2.587,2.127
1966.0,,,21358778.433,-1.35,1.175,2.699,4.199,0.632,0.63,2.59,2.125
1969.0,,,21384096.644,-1.351,1.162,2.699,4.199,0.559,0.553,2.301,1.848
1971.0,,,21400171.829,-1.35,1.197,2.699,4.199,0.548,0.541,2.254,1.808