File: Li-ion_Batteries/CALCE_CX2-34_prism_LCO_25C_0-100_0.5-0.5C_e_cycle_data.csv
Cycle_Index,Start_Time,End_Time,Test_Time (s),Min_Current (A),Max_Current (A),Min_Voltage (V),Max_Voltage (V),Charge_Capacity (Ah),Discharge_Capacity (Ah),Charge_Energy (Wh),Discharge_Energy (Wh)
1.0,,,22677.132,-1.35,1.189,2.699,4.2,1.357,1.354,5.431,4.857
4.0,,,62359.066,-1.35,1.17,2.699,4.199,1.348,1.348,5.377,4.85
7.0,,,101812.839,-1.35,1.179,2.699,4.2,1.331,1.333,5.318,4.786
10.0,,,140980.69,-1.35,1.166,2.699,4.199,1.334,1.336,5.321,4.815
13.0,,,180028.711,-1.35,1.168,2.699,4.2,1.321,1.322,5.28,4.746
16.0,,,218947.085,-1.35,1.159,2.699,4.199,1.319,1.325,5.268,4.772
19.0,,,257762.744,-1.35,1.167,2.699,4.2,1.311,1.313,5.24,4.715
22.0,,,296509.518,-1.35,1.164,2.699,4.2,1.307,1.314,5.226,4.73
25.0,,,331493.217,-1.35,0.675,2.699,4.199,1.12,1.126,4.429,4.015
28.0,,,369921.505,-1.35,1.15,2.699,4.199,1.312,1.316,5.234,4.751
31.0,,,408256.263,-1.35,1.148,2.699,4.199,1.311,1.315,5.227,4.747
34.0,,,446514.099,-1.35,1.147,2.699,4.199,1.309,1.313,5.22,4.746
37.0,,,484704.685,-1.35,1.143,2.699,4.2,1.308,1.312,5.214,4.74
40.0,,,522906.52,-1.35,1.157,2.699,4.2,1.294,1.297,5.171,4.661
43.0,,,561101.554,-1.35,1.151,2.699,4.199,1.293,1.3,5.165,4.689
46.0,,,599218.48,-1.35,1.157,2.699,4.199,1.288,1.289,5.15,4.628
49.0,,,637345.81,-1.35,1.156,2.699,4.199,1.282,1.289,5.126,4.635
52.0,,,675987.161,-1.35,1.173,2.699,4.199,1.327,1.327,5.3,4.768
55.0,,,714893.015,-1.35,1.166,2.699,4.199,1.321,1.318,5.271,4.739
58.0,,,753643.718,-1.35,1.16,2.699,4.199,1.308,1.307,5.225,4.693
61.0,,,792306.874,-1.35,1.161,2.699,4.199,1.299,1.299,5.193,4.656
64.0,,,830852.588,-1.35,1.167,2.699,4.199,1.288,1.291,5.155,4.624
67.0,,,869248.679,-1.35,1.156,2.699,4.199,1.282,1.287,5.132,4.609
70.0,,,907548.234,-1.35,1.161,2.699,4.199,1.277,1.28,5.114,4.58
73.0,,,945746.864,-1.35,1.154,2.699,4.199,1.272,1.278,5.092,4.575
76.0,,,983829.539,-1.35,1.158,2.699,4.199,1.27,1.274,5.086,4.563
79.0,,,1021819.0,-1.35,1.15,2.699,4.199,1.268,1.271,5.078,4.551
82.0,,,1059723.558,-1.35,1.151,2.699,4.199,1.264,1.267,5.06,4.537
85.0,,,1097563.451,-1.35,1.159,2.699,4.199,1.259,1.265,5.043,4.53
88.0,,,1135339.719,-1.35,1.148,2.699,4.199,1.258,1.26,5.037,4.511
91.0,,,1173124.416,-1.35,1.156,2.699,4.199,1.248,1.251,5.006,4.465
94.0,,,1197994.048,-1.35,1.157,2.699,4.199,1.247,1.254,4.999,4.492
97.0,,,1235483.995,-1.35,1.146,2.699,4.199,1.255,1.26,5.019,4.528
100.0,,,1260891.2,0.0,0.675,3.279,3.787,0.064,0.0,0.239,0.0
103.0,,,1298744.898,-1.35,1.156,2.699,4.199,1.287,1.293,5.144,4.659
106.0,,,1336954.947,-1.35,1.158,2.699,4.199,1.274,1.28,5.103,4.596
109.0,,,1375162.643,-1.35,1.159,2.699,4.199,1.272,1.279,5.092,4.602
112.0,,,1413095.383,-1.35,1.155,2.699,4.199,1.268,1.268,5.075,4.549
115.0,,,1450978.538,-1.35,1.151,2.699,4.199,1.262,1.262,5.053,4.524
118.0,,,1488666.586,-1.35,1.138,2.699,4.199,1.266,1.264,5.058,4.541
121.0,,,1526382.039,-1.35,1.147,2.699,4.199,1.252,1.255,5.014,4.499
124.0,,,1563896.834,-1.35,1.137,2.699,4.199,1.257,1.261,5.027,4.541
127.0,,,1601270.514,-1.35,1.137,2.699,4.199,1.258,1.261,5.028,4.543
130.0,,,1638579.201,-1.35,1.137,2.699,4.199,1.257,1.261,5.022,4.549
133.0,,,1675823.144,-1.35,1.137,2.699,4.199,1.256,1.26,5.018,4.544
136.0,,,1713013.526,-1.35,1.13,2.699,4.199,1.255,1.259,5.013,4.544
139.0,,,1743170.408,-1.35,0.675,2.699,4.199,1.069,1.076,4.23,3.843
142.0,,,1780462.978,-1.35,1.141,2.699,4.199,1.239,1.241,4.963,4.454
145.0,,,1817679.679,-1.35,1.132,2.699,4.199,1.243,1.248,4.971,4.496
148.0,,,1854817.326,-1.35,1.145,2.699,4.199,1.229,1.234,4.926,4.425
151.0,,,1892151.528,-1.35,1.159,2.699,4.199,1.227,1.268,4.943,4.551
154.0,,,1930056.102,-1.35,1.144,2.699,4.199,1.274,1.271,5.089,4.578
157.0,,,1967821.149,-1.35,1.147,2.699,4.199,1.261,1.269,5.044,4.574
160.0,,,2001793.672,-1.35,1.134,2.699,4.199,1.269,1.268,5.063,4.577
163.0,,,2039158.709,-1.35,1.141,2.699,4.199,1.264,1.266,5.045,4.571
166.0,,,2076433.641,-1.35,1.139,2.699,4.199,1.262,1.265,5.037,4.569
169.0,,,2113614.875,-1.35,1.131,2.699,4.199,1.258,1.262,5.017,4.561
172.0,,,2150749.369,-1.35,1.135,2.699,4.199,1.257,1.261,5.014,4.556
175.0,,,2184358.513,-1.35,0.675,2.699,4.198,1.07,1.078,4.231,3.851
178.0,,,2221543.582,-1.35,1.137,2.699,4.199,1.24,1.242,4.962,4.465
181.0,,,2255024.893,-1.35,0.675,2.699,4.198,1.048,1.059,4.148,3.774
184.0,,,2292018.326,-1.35,1.141,2.699,4.199,1.233,1.234,4.935,4.429
187.0,,,2328924.134,-1.35,1.141,2.699,4.199,1.228,1.228,4.915,4.405
190.0,,,2365656.811,-1.35,1.125,2.699,4.199,1.232,1.23,4.921,4.421
193.0,,,2398776.706,-1.35,1.138,2.699,4.199,1.226,1.223,4.908,4.386
196.0,,,2435572.658,-1.35,1.132,2.699,4.199,1.225,1.231,4.901,4.433
199.0,,,2472269.791,-1.35,1.138,2.699,4.199,1.214,1.22,4.863,4.374
202.0,,,2510329.155,-1.35,1.168,2.699,4.199,1.264,1.27,5.065,4.566
205.0,,,2548255.693,-1.35,1.149,2.699,4.199,1.269,1.272,5.072,4.581
208.0,,,2585969.102,-1.35,1.145,2.699,4.199,1.266,1.268,5.055,4.573
211.0,,,2623529.973,-1.35,1.142,2.699,4.199,1.263,1.266,5.044,4.566
214.0,,,2660987.26,-1.35,1.143,2.699,4.199,1.258,1.263,5.024,4.559
217.0,,,2698327.569,-1.35,1.14,2.699,4.199,1.256,1.261,5.014,4.555
220.0,,,2731840.52,-1.35,1.15,2.699,4.199,1.244,1.243,4.981,4.466
223.0,,,2769200.495,-1.35,1.148,2.699,4.199,1.235,1.244,4.945,4.475
226.0,,,2806371.089,-1.35,1.144,2.699,4.199,1.236,1.234,4.947,4.425
229.0,,,2843514.87,-1.35,1.146,2.699,4.199,1.227,1.23,4.915,4.412
232.0,,,2880608.879,-1.35,1.136,2.699,4.199,1.234,1.234,4.934,4.442
235.0,,,2913764.642,-1.35,1.157,2.699,4.199,1.224,1.221,4.907,4.373
238.0,,,2950720.99,-1.35,1.141,2.699,4.199,1.221,1.229,4.891,4.418
241.0,,,2987599.479,-1.35,1.148,2.699,4.199,1.213,1.216,4.863,4.354
244.0,,,3024430.569,-1.35,1.142,2.699,4.199,1.208,1.214,4.845,4.347
247.0,,,3061144.853,-1.35,1.139,2.699,4.199,1.214,1.21,4.858,4.335
250.0,,,3097881.034,-1.35,1.156,2.699,4.199,1.203,1.206,4.827,4.317
253.0,,,3134599.374,-1.35,1.142,2.699,4.199,1.211,1.217,4.85,4.372
256.0,,,3171184.802,-1.35,1.138,2.699,4.199,1.213,1.219,4.855,4.385
259.0,,,3207702.674,-1.35,1.14,2.699,4.199,1.215,1.219,4.862,4.387
262.0,,,3244184.6,-1.35,1.133,2.699,4.199,1.214,1.218,4.858,4.386
265.0,,,3280637.954,-1.35,1.136,2.699,4.199,1.214,1.219,4.855,4.39
268.0,,,3316997.7,-1.35,1.132,2.699,4.199,1.211,1.206,4.841,4.328
271.0,,,3353458.523,-1.35,1.146,2.699,4.2,1.194,1.197,4.791,4.284
274.0,,,3389791.789,-1.35,1.151,2.699,4.199,1.202,1.207,4.815,4.34
277.0,,,3426045.157,-1.35,1.149,2.699,4.199,1.187,1.192,4.761,4.266
280.0,,,3462374.204,-1.35,1.157,2.699,4.199,1.189,1.199,4.773,4.301
283.0,,,3498597.35,-1.35,1.164,2.699,4.2,1.188,1.188,4.768,4.245
286.0,,,3534839.142,-1.35,1.146,2.699,4.199,1.181,1.185,4.74,4.233
289.0,,,3571046.536,-1.35,1.143,2.699,4.199,1.193,1.193,4.778,4.281
292.0,,,3607236.642,-1.35,1.145,2.699,4.199,1.18,1.183,4.739,4.228
295.0,,,3643439.494,-1.35,1.142,2.699,4.199,1.185,1.192,4.75,4.275
298.0,,,3679606.528,-1.35,1.148,2.699,4.199,1.173,1.179,4.712,4.212
301.0,,,3715959.204,-1.35,1.156,2.699,4.199,1.176,1.248,4.739,4.503
304.0,,,3753248.029,-1.35,1.142,2.699,4.199,1.249,1.254,4.988,4.531
307.0,,,3790356.669,-1.35,1.151,2.699,4.199,1.238,1.242,4.95,4.478
310.0,,,3823807.45,-1.35,1.147,2.699,4.199,1.235,1.242,4.934,4.481
313.0,,,3860747.68,-1.35,1.143,2.699,4.199,1.236,1.237,4.936,4.461
316.0,,,3897598.113,-1.35,1.141,2.699,4.199,1.23,1.233,4.914,4.444
319.0,,,3934391.474,-1.35,1.134,2.699,4.199,1.232,1.238,4.917,4.471
322.0,,,3971136.22,-1.35,1.137,2.699,4.199,1.224,1.227,4.892,4.423
325.0,,,4007818.441,-1.35,1.141,2.699,4.199,1.218,1.226,4.873,4.421
328.0,,,4044449.754,-1.35,1.148,2.699,4.199,1.204,1.207,4.825,4.332
331.0,,,4077052.972,-1.35,0.675,2.699,4.196,0.987,1.0,3.919,3.54
334.0,,,4113518.297,-1.35,1.138,2.699,4.199,1.209,1.216,4.834,4.381
337.0,,,4149863.221,-1.35,1.134,2.699,4.199,1.211,1.218,4.839,4.396
340.0,,,4182654.53,-1.35,1.132,2.699,4.199,1.217,1.217,4.86,4.39
343.0,,,4218940.168,-1.35,1.133,2.699,4.199,1.21,1.215,4.834,4.384
346.0,,,4255152.221,-1.35,1.134,2.699,4.199,1.209,1.215,4.829,4.384
349.0,,,4291364.382,-1.35,1.134,2.699,4.199,1.201,1.195,4.804,4.29
352.0,,,4327679.597,-1.35,1.16,2.699,4.2,1.192,1.193,4.778,4.278
355.0,,,4363893.632,-1.35,1.138,2.699,4.199,1.201,1.199,4.805,4.314
358.0,,,4400026.834,-1.35,1.146,2.699,4.199,1.182,1.187,4.738,4.256
361.0,,,4436106.249,-1.35,1.141,2.698,4.199,1.189,1.196,4.76,4.306
364.0,,,4472108.353,-1.35,1.162,2.699,4.199,1.173,1.178,4.706,4.219
367.0,,,4504649.794,-1.35,1.159,2.699,4.199,1.181,1.186,4.74,4.248
370.0,,,4540922.85,-1.35,1.137,2.699,4.199,1.192,1.202,4.776,4.324
373.0,,,4573575.421,-1.35,1.166,2.699,4.199,1.182,1.187,4.741,4.251
376.0,,,4609826.233,-1.35,1.147,2.699,4.199,1.176,1.186,4.721,4.246
379.0,,,4645918.229,-1.35,1.137,2.699,4.2,1.185,1.182,4.744,4.235
382.0,,,4681951.001,-1.35,1.144,2.699,4.199,1.169,1.175,4.693,4.202
385.0,,,4714097.828,-1.35,0.675,2.699,4.198,0.98,0.992,3.887,3.522
388.0,,,4750015.537,-1.35,1.143,2.699,4.199,1.17,1.175,4.694,4.212
391.0,,,4785883.727,-1.35,1.148,2.699,4.199,1.171,1.179,4.697,4.232
394.0,,,4821653.833,-1.35,1.139,2.699,4.199,1.172,1.173,4.699,4.203
397.0,,,4857387.708,-1.35,1.141,2.699,4.199,1.167,1.172,4.68,4.202
400.0,,,4893098.51,-1.35,1.137,2.699,4.199,1.173,1.18,4.699,4.243
403.0,,,4928761.342,-1.35,1.135,2.699,4.2,1.176,1.18,4.708,4.245
406.0,,,4964391.35,-1.35,1.132,2.699,4.199,1.176,1.182,4.705,4.255
409.0,,,5000009.548,-1.35,1.136,2.699,4.199,1.175,1.182,4.704,4.255
412.0,,,5035611.537,-1.35,1.136,2.699,4.199,1.175,1.179,4.703,4.244
415.0,,,5071174.877,-1.35,1.142,2.699,4.199,1.174,1.173,4.701,4.216
418.0,,,5107301.463,-1.35,1.154,2.699,4.199,1.17,1.181,4.696,4.239
421.0,,,5143187.0,-1.35,1.148,2.699,4.199,1.174,1.172,4.705,4.198
424.0,,,5178762.347,-1.35,1.147,2.699,4.199,1.164,1.168,4.668,4.186
427.0,,,5214425.522,-1.35,1.154,2.699,4.199,1.169,1.176,4.684,4.227
430.0,,,5250060.433,-1.35,1.154,2.699,4.199,1.158,1.165,4.646,4.175
433.0,,,5285595.992,-1.35,1.145,2.699,4.199,1.159,1.17,4.65,4.2
436.0,,,5321070.51,-1.35,1.154,2.699,4.199,1.155,1.159,4.633,4.148
439.0,,,5356522.283,-1.35,1.144,2.699,4.199,1.153,1.157,4.625,4.141
442.0,,,5392009.638,-1.35,1.149,2.699,4.199,1.162,1.163,4.658,4.172
445.0,,,5427453.182,-1.35,1.15,2.699,4.199,1.152,1.157,4.624,4.143
448.0,,,5462907.402,-1.35,1.152,2.699,4.199,1.155,1.163,4.633,4.173
451.0,,,5498326.76,-1.35,1.154,2.699,4.2,1.159,1.164,4.644,4.181
454.0,,,5533730.483,-1.35,1.146,2.699,4.199,1.161,1.166,4.653,4.189
457.0,,,5569122.618,-1.35,1.144,2.699,4.199,1.161,1.167,4.651,4.195
460.0,,,5604498.881,-1.35,1.138,2.699,4.2,1.161,1.167,4.648,4.199
463.0,,,5639860.611,-1.35,1.136,2.699,4.199,1.163,1.168,4.658,4.202
466.0,,,5675351.577,-1.35,1.154,2.699,4.199,1.139,1.149,4.597,4.102
469.0,,,5711030.479,-1.35,1.154,2.699,4.199,1.153,1.159,4.625,4.154
472.0,,,5746505.982,-1.35,1.146,2.699,4.199,1.145,1.149,4.598,4.111
475.0,,,5781894.904,-1.35,1.161,2.699,4.199,1.144,1.151,4.593,4.121
478.0,,,5817226.435,-1.35,1.148,2.699,4.199,1.148,1.148,4.601,4.109
481.0,,,5852506.133,-1.35,1.145,2.699,4.199,1.142,1.15,4.585,4.118
484.0,,,5887743.705,-1.35,1.153,2.699,4.199,1.149,1.153,4.608,4.137
487.0,,,5922924.384,-1.35,1.162,2.699,4.199,1.138,1.144,4.571,4.093
490.0,,,5958175.056,-1.35,1.149,2.699,4.199,1.138,1.149,4.571,4.117
493.0,,,5993393.808,-1.35,1.15,2.699,4.199,1.146,1.149,4.595,4.118
496.0,,,6024798.121,-1.35,1.141,2.699,4.199,1.144,1.149,4.588,4.12
499.0,,,6059965.021,-1.35,1.139,2.699,4.199,1.149,1.155,4.608,4.147
502.0,,,6095123.372,-1.35,1.148,2.699,4.199,1.15,1.156,4.607,4.155
505.0,,,6126554.22,-1.35,0.675,2.699,4.198,0.957,0.969,3.796,3.443
508.0,,,6161779.26,-1.35,1.14,2.699,4.199,1.153,1.158,4.618,4.167
511.0,,,6193318.219,-1.35,1.137,2.699,4.199,1.153,1.158,4.618,4.167
514.0,,,6228454.635,-1.35,1.147,2.699,4.199,1.153,1.159,4.616,4.17
517.0,,,6263954.719,-1.35,1.142,2.699,4.199,1.159,1.16,4.647,4.165
520.0,,,6299426.226,-1.35,1.144,2.699,4.199,1.16,1.166,4.647,4.194
523.0,,,6334766.762,-1.35,1.145,2.699,4.199,1.152,1.157,4.618,4.156
526.0,,,6369979.093,-1.35,1.14,2.699,4.199,1.153,1.162,4.619,4.18
529.0,,,6405114.302,-1.35,1.141,2.699,4.199,1.15,1.154,4.607,4.148
532.0,,,6440235.839,-1.35,1.139,2.699,4.199,1.146,1.151,4.592,4.135
535.0,,,6475347.626,-1.35,1.134,2.699,4.199,1.152,1.157,4.613,4.165
538.0,,,6501301.441,0.0,0.675,3.295,3.962,0.458,0.0,1.772,0.0
541.0,,,6534003.294,-1.35,1.14,2.699,4.199,1.147,1.145,4.597,4.108
544.0,,,6569285.101,-1.35,1.141,2.699,4.199,1.16,1.162,4.646,4.186
547.0,,,6604551.257,-1.35,1.168,2.699,4.2,1.135,1.139,4.558,4.071
550.0,,,6639789.581,-1.35,1.146,2.699,4.199,1.139,1.15,4.573,4.129
553.0,,,6675019.094,-1.35,1.152,2.699,4.2,1.131,1.133,4.545,4.046
556.0,,,6710140.108,-1.35,1.176,2.699,4.2,1.122,1.126,4.51,4.016
559.0,,,6745079.082,-1.35,1.148,2.699,4.199,1.136,1.132,4.556,4.046
562.0,,,6780099.458,-1.35,1.173,2.699,4.2,1.117,1.121,4.491,3.998
565.0,,,6815064.054,-1.35,1.155,2.699,4.199,1.11,1.113,4.468,3.962
568.0,,,6850016.822,-1.35,1.162,2.699,4.199,1.106,1.112,4.455,3.959
571.0,,,6884944.791,-1.35,1.156,2.699,4.199,1.118,1.123,4.492,4.015
574.0,,,6919806.112,-1.35,1.149,2.699,4.199,1.12,1.124,4.502,4.021
577.0,,,6954618.668,-1.35,1.156,2.699,4.199,1.12,1.124,4.5,4.024
580.0,,,6989412.403,-1.35,1.155,2.699,4.2,1.119,1.122,4.498,4.014
583.0,,,7024174.083,-1.35,1.155,2.699,4.199,1.116,1.121,4.484,4.008
586.0,,,7058911.317,-1.35,1.148,2.699,4.199,1.115,1.121,4.48,4.01
589.0,,,7093814.8,-1.35,1.155,2.699,4.199,1.11,1.131,4.478,4.051
592.0,,,7128893.71,-1.35,1.152,2.699,4.199,1.126,1.128,4.523,4.036
595.0,,,7163830.116,-1.35,1.156,2.699,4.199,1.122,1.127,4.506,4.034
598.0,,,7198671.575,-1.35,1.151,2.699,4.199,1.123,1.125,4.509,4.029
601.0,,,7233438.303,-1.35,1.167,2.699,4.199,1.118,1.122,4.492,4.016
604.0,,,7268065.512,-1.35,1.148,2.699,4.199,1.12,1.122,4.491,4.017
607.0,,,7302737.741,-1.35,1.156,2.699,4.199,1.107,1.11,4.452,3.964
610.0,,,7337363.93,-1.35,1.155,2.699,4.199,1.1,1.107,4.426,3.949
613.0,,,7368021.482,-1.35,1.16,2.699,4.199,1.103,1.106,4.435,3.948
616.0,,,7402561.411,-1.35,1.161,2.699,4.199,1.092,1.096,4.398,3.903
619.0,,,7437103.072,-1.35,1.16,2.699,4.199,1.091,1.096,4.394,3.901
622.0,,,7471614.206,-1.35,1.172,2.699,4.199,1.088,1.092,4.382,3.885
625.0,,,7506093.184,-1.35,1.17,2.699,4.199,1.084,1.089,4.367,3.872
628.0,,,7540559.551,-1.35,1.158,2.699,4.199,1.086,1.091,4.376,3.882
631.0,,,7574999.95,-1.35,1.165,2.699,4.199,1.083,1.089,4.365,3.877
634.0,,,7609415.005,-1.35,1.169,2.699,4.199,1.083,1.088,4.361,3.871
637.0,,,7643805.769,-1.35,1.178,2.699,4.199,1.082,1.086,4.358,3.863
640.0,,,7678583.109,-1.35,1.161,2.699,4.199,1.101,1.1,4.434,3.924
643.0,,,7713319.263,-1.35,1.156,2.699,4.199,1.095,1.099,4.408,3.917
646.0,,,7747976.702,-1.35,1.159,2.699,4.199,1.099,1.104,4.421,3.938
649.0,,,7782594.318,-1.35,1.171,2.699,4.199,1.089,1.093,4.388,3.89
652.0,,,7817149.793,-1.35,1.164,2.699,4.199,1.084,1.088,4.371,3.87
655.0,,,7851570.146,-1.35,1.162,2.699,4.199,1.085,1.087,4.37,3.867
658.0,,,7885991.892,-1.35,1.161,2.699,4.199,1.079,1.082,4.35,3.844
661.0,,,7920366.187,-1.35,1.161,2.699,4.199,1.078,1.082,4.343,3.847
664.0,,,7954674.247,-1.35,1.17,2.699,4.199,1.073,1.077,4.329,3.823
667.0,,,7988940.593,-1.35,1.192,2.699,4.199,1.07,1.074,4.314,3.81
670.0,,,8023192.849,-1.35,1.164,2.699,4.199,1.072,1.082,4.32,3.85
673.0,,,8057455.139,-1.35,1.161,2.699,4.199,1.079,1.085,4.345,3.867
676.0,,,8091693.609,-1.35,1.156,2.699,4.199,1.079,1.086,4.345,3.871
679.0,,,8121932.575,-1.35,1.16,2.699,4.199,1.082,1.085,4.357,3.869
682.0,,,8156142.099,-1.35,1.176,2.699,4.199,1.078,1.082,4.34,3.858
685.0,,,8190317.015,-1.35,1.179,2.699,4.2,1.067,1.071,4.303,3.806
688.0,,,8224430.635,-1.35,1.166,2.699,4.199,1.06,1.066,4.278,3.781
691.0,,,8258909.558,-1.35,1.177,2.699,4.2,1.073,1.073,4.327,3.812
694.0,,,8288981.198,-1.35,1.166,2.699,4.199,1.075,1.071,4.336,3.808
697.0,,,8323179.856,-1.35,1.162,2.699,4.199,1.071,1.075,4.315,3.826
700.0,,,8357312.257,-1.35,1.166,2.699,4.199,1.067,1.07,4.302,3.805
703.0,,,8391413.933,-1.35,1.162,2.699,4.199,1.06,1.064,4.275,3.778
706.0,,,8421815.157,0.0,1.178,3.403,4.199,1.043,0.0,4.205,0.0
709.0,,,8448515.519,-1.35,1.171,2.699,4.199,1.054,1.065,4.251,3.791
712.0,,,8482173.915,-1.35,1.163,2.699,4.199,1.055,1.06,4.255,3.768
715.0,,,8515951.705,-1.35,1.169,2.699,4.199,1.055,1.061,4.258,3.772
718.0,,,8549796.706,-1.35,1.172,2.699,4.199,1.053,1.058,4.248,3.755
721.0,,,8583697.326,-1.35,1.173,2.699,4.199,1.049,1.054,4.236,3.735
724.0,,,8617618.575,-1.35,1.175,2.699,4.199,1.052,1.057,4.245,3.751
727.0,,,8651512.865,-1.35,1.177,2.699,4.199,1.042,1.047,4.21,3.704
730.0,,,8685427.603,-1.35,1.174,2.699,4.199,1.039,1.046,4.197,3.704
733.0,,,8719261.065,-1.35,1.191,2.699,4.199,1.037,1.041,4.191,3.682
736.0,,,8753096.263,-1.35,1.171,2.699,4.199,1.034,1.038,4.178,3.667
739.0,,,8782553.015,-1.35,1.184,2.699,4.199,1.037,1.039,4.189,3.675
742.0,,,8816376.841,-1.35,1.179,2.699,4.199,1.033,1.035,4.177,3.656
745.0,,,8850146.975,-1.35,1.181,2.699,4.199,1.029,1.034,4.161,3.653
748.0,,,8883914.443,-1.35,1.181,2.699,4.199,1.026,1.032,4.147,3.644
751.0,,,8913291.447,-1.35,1.188,2.699,4.199,1.026,1.029,4.149,3.634
754.0,,,8947047.91,-1.35,1.195,2.699,4.2,1.025,1.029,4.147,3.631
757.0,,,8981063.087,-1.35,1.165,2.699,4.199,1.007,1.04,4.097,3.7
760.0,,,9014978.301,-1.35,1.163,2.699,4.199,1.045,1.05,4.218,3.728
763.0,,,9048908.137,-1.35,1.173,2.699,4.199,1.046,1.051,4.224,3.725
766.0,,,9082877.036,-1.35,1.201,2.699,4.199,1.047,1.047,4.227,3.705
769.0,,,9112326.673,-1.351,0.675,2.699,4.199,0.805,0.819,3.216,2.856
772.0,,,9146480.003,-1.35,1.179,2.699,4.199,1.036,1.04,4.187,3.675
775.0,,,9180472.571,-1.35,1.171,2.699,4.199,1.032,1.035,4.172,3.656
778.0,,,9214369.977,-1.358,1.177,2.699,4.199,1.028,1.032,4.156,3.642
781.0,,,9248214.051,-1.419,1.18,2.699,4.199,1.03,1.036,4.163,3.661
784.0,,,9282001.75,-1.35,1.259,2.699,4.199,1.028,1.033,4.157,3.649
787.0,,,9315784.164,-1.35,1.179,2.699,4.199,1.029,1.037,4.157,3.671
790.0,,,9349516.233,-1.353,1.198,2.699,4.2,1.029,1.032,4.156,3.649
793.0,,,9383239.232,-1.35,1.172,2.699,4.199,1.021,1.025,4.127,3.618
796.0,,,9416943.664,-1.35,1.183,2.699,4.199,1.023,1.028,4.137,3.63
799.0,,,9450587.099,-1.35,1.177,2.699,4.199,1.017,1.021,4.111,3.599
802.0,,,9484200.013,-1.35,1.177,2.699,4.199,1.015,1.021,4.107,3.603
805.0,,,9517817.186,-1.35,1.171,2.699,4.199,1.019,1.022,4.119,3.608
808.0,,,9551812.283,-1.35,1.191,2.699,4.199,1.034,1.034,4.175,3.661
811.0,,,9585643.831,-1.35,1.165,2.699,4.199,1.031,1.034,4.167,3.659
814.0,,,9619363.885,-1.35,1.168,2.699,4.199,1.034,1.038,4.174,3.677
817.0,,,9653032.504,-1.35,1.172,2.699,4.199,1.026,1.03,4.146,3.645
820.0,,,9686655.365,-1.35,1.19,2.699,4.199,1.022,1.026,4.13,3.627
823.0,,,9715690.827,-1.35,0.675,2.699,4.196,0.785,0.801,3.134,2.79
826.0,,,9749439.957,-1.35,1.18,2.699,4.199,1.014,1.017,4.101,3.585
829.0,,,9782969.664,-1.35,1.189,2.699,4.199,1.01,1.015,4.086,3.58
832.0,,,9816423.413,-1.35,1.175,2.699,4.199,1.012,1.016,4.092,3.585
835.0,,,9849872.953,-1.35,1.173,2.699,4.199,1.008,1.013,4.08,3.572
838.0,,,9883317.193,-1.35,1.174,2.699,4.199,1.011,1.018,4.09,3.596
841.0,,,9916696.906,-1.35,1.172,2.699,4.199,1.008,1.01,4.076,3.561
844.0,,,9950070.366,-1.35,1.183,2.699,4.199,1.003,1.009,4.061,3.559
847.0,,,9983370.621,-1.35,1.181,2.699,4.199,1.003,1.004,4.057,3.537
850.0,,,10016663.751,-1.35,1.184,2.699,4.199,0.996,1.0,4.032,3.52
853.0,,,10049963.084,-1.35,1.183,2.699,4.199,1.002,1.006,4.055,3.55
856.0,,,10083194.794,-1.35,1.168,2.699,4.199,1.001,1.006,4.05,3.552
859.0,,,10116949.646,-1.35,1.192,2.699,4.199,1.008,1.011,4.076,3.571
862.0,,,10150345.211,-1.35,1.167,2.699,4.199,1.005,1.01,4.065,3.564
865.0,,,10183710.494,-1.35,1.177,2.699,4.199,1.008,1.013,4.074,3.58
868.0,,,10217015.216,-1.35,1.183,2.699,4.199,1.003,1.007,4.059,3.553
871.0,,,10250322.258,-1.35,1.184,2.699,4.199,1.002,1.008,4.055,3.558
874.0,,,10283585.261,-1.35,1.179,2.699,4.199,1.002,1.006,4.053,3.552
877.0,,,10316823.718,-1.35,1.207,2.699,4.2,0.999,1.005,4.041,3.548
880.0,,,10350052.0,-1.35,1.17,2.699,4.199,1.004,1.006,4.061,3.554
883.0,,,10383202.904,-1.35,1.183,2.699,4.199,0.996,0.997,4.029,3.514
886.0,,,10411683.8,-1.35,0.675,2.699,4.196,0.751,0.769,3.002,2.673
889.0,,,10445031.564,-1.35,1.185,2.699,4.199,0.993,0.994,4.019,3.504
892.0,,,10478135.772,-1.35,1.179,2.699,4.199,0.985,0.988,3.989,3.477
895.0,,,10511211.586,-1.35,1.191,2.699,4.199,0.991,0.994,4.009,3.505
898.0,,,10544241.901,-1.35,1.178,2.699,4.199,0.987,0.989,3.992,3.482
901.0,,,10577285.347,-1.35,1.188,2.699,4.199,0.981,0.987,3.973,3.473
904.0,,,10610302.607,-1.35,1.187,2.699,4.199,0.98,0.984,3.969,3.464
907.0,,,10643646.567,-1.35,1.179,2.699,4.199,0.957,0.991,3.901,3.511
910.0,,,10676659.813,-1.35,1.2,2.699,4.199,0.994,0.994,4.021,3.51
913.0,,,10709629.542,-1.35,1.199,2.699,4.199,0.991,0.993,4.012,3.504
916.0,,,10742703.784,-1.35,1.178,2.699,4.199,0.995,0.999,4.026,3.53
919.0,,,10775743.914,-1.35,1.181,2.699,4.199,0.985,0.989,3.986,3.484
922.0,,,10808833.632,-1.35,1.182,2.699,4.199,0.984,0.993,3.985,3.502
925.0,,,10841898.847,-1.35,1.203,2.699,4.199,0.988,0.992,3.998,3.496
928.0,,,10874890.23,-1.35,1.184,2.699,4.199,0.983,0.989,3.98,3.488
931.0,,,10907898.823,-1.35,1.199,2.699,4.199,0.987,0.992,3.993,3.503
934.0,,,10940843.462,-1.35,1.176,2.699,4.199,0.985,0.989,3.986,3.489
937.0,,,10973756.856,-1.35,1.194,2.699,4.2,0.979,0.985,3.962,3.471
940.0,,,11006638.799,-1.35,1.204,2.699,4.199,0.978,0.983,3.958,3.467
943.0,,,11039427.148,-1.35,1.178,2.699,4.199,0.969,0.971,3.927,3.41
946.0,,,11072226.783,-1.35,1.183,2.699,4.199,0.968,0.972,3.924,3.419
949.0,,,11104971.67,-1.35,1.18,2.699,4.199,0.968,0.972,3.92,3.418
952.0,,,11137665.981,-1.35,1.184,2.699,4.199,0.96,0.967,3.89,3.401
955.0,,,11170349.533,-1.35,1.177,2.699,4.199,0.963,0.968,3.902,3.406
958.0,,,11203508.843,-1.35,1.176,2.699,4.199,0.975,0.977,3.95,3.441
961.0,,,11236399.499,-1.35,1.192,2.699,4.199,0.969,0.971,3.926,3.413
964.0,,,11269099.904,-1.35,1.196,2.699,4.199,0.961,0.968,3.893,3.404
967.0,,,11301752.165,-1.35,1.173,2.699,4.199,0.966,0.968,3.911,3.407
970.0,,,11334352.948,-1.35,1.186,2.699,4.2,0.959,0.964,3.883,3.389
973.0,,,11366922.223,-1.35,1.186,2.699,4.199,0.962,0.966,3.897,3.401
976.0,,,11399505.922,-1.35,1.196,2.699,4.199,0.961,0.964,3.892,3.391
979.0,,,11432010.133,-1.35,1.188,2.699,4.199,0.953,0.959,3.863,3.372
982.0,,,11464491.868,-1.35,1.18,2.699,4.199,0.956,0.963,3.872,3.389
985.0,,,11496895.388,-1.35,1.183,2.699,4.199,0.951,0.956,3.855,3.358
988.0,,,11524762.025,-1.35,1.176,2.699,4.199,0.957,0.954,3.879,3.354
991.0,,,11546240.755,-1.35,0.949,2.699,4.199,0.139,0.987,0.584,3.493
994.0,,,11577841.962,-1.35,1.191,2.699,4.2,0.961,0.964,3.886,3.406
997.0,,,11605199.547,-1.35,0.675,2.699,4.199,0.726,0.745,2.904,2.593
1000.0,,,11637337.696,-1.35,1.168,2.699,4.199,0.956,0.96,3.867,3.388
1003.0,,,11669293.207,-1.35,1.197,2.699,4.2,0.953,0.955,3.856,3.365
1006.0,,,11701225.297,-1.35,1.171,2.699,4.199,0.945,0.948,3.828,3.331
1009.0,,,11733178.944,-1.35,1.173,2.699,4.199,0.945,0.95,3.826,3.346
1012.0,,,11765031.045,-1.35,1.178,2.699,4.199,0.936,0.939,3.795,3.294
1015.0,,,11796843.989,-1.35,1.18,2.699,4.199,0.932,0.937,3.779,3.288
1018.0,,,11828688.645,-1.35,1.177,2.699,4.199,0.935,0.94,3.79,3.302
1021.0,,,11860502.701,-1.35,1.186,2.699,4.199,0.931,0.934,3.776,3.276
1024.0,,,11892254.926,-1.35,1.176,2.699,4.199,0.927,0.931,3.759,3.264
1027.0,,,11923985.885,-1.35,1.187,2.699,4.199,0.927,0.93,3.757,3.259
1030.0,,,11955657.949,-1.35,1.182,2.699,4.199,0.919,0.924,3.728,3.235
1033.0,,,11987313.764,-1.35,1.181,2.699,4.199,0.919,0.925,3.728,3.24
1036.0,,,12014497.1,-1.35,1.194,2.699,4.199,0.923,0.923,3.741,3.234
1039.0,,,12046125.832,-1.35,1.182,2.699,4.199,0.914,0.919,3.71,3.218
1042.0,,,12078486.932,-1.35,1.175,2.699,4.199,0.961,0.953,3.89,3.367
1045.0,,,12110387.4,-1.35,1.185,2.699,4.199,0.946,0.95,3.83,3.346
1048.0,,,12142328.278,-1.35,1.171,2.699,4.199,0.944,0.949,3.823,3.338
1051.0,,,12174349.95,-1.35,1.187,2.699,4.199,0.947,0.953,3.835,3.357
1054.0,,,12206381.537,-1.35,1.17,2.699,4.199,0.944,0.948,3.822,3.334
1057.0,,,12238404.237,-1.35,1.184,2.699,4.199,0.943,0.948,3.819,3.333
1060.0,,,12270424.36,-1.35,1.17,2.699,4.199,0.939,0.943,3.804,3.312
1063.0,,,12302313.861,-1.35,1.191,2.699,4.199,0.931,0.934,3.774,3.273
1066.0,,,12334193.855,-1.35,1.174,2.699,4.199,0.93,0.934,3.769,3.279
1069.0,,,12366007.994,-1.35,1.183,2.699,4.199,0.923,0.928,3.742,3.251
1072.0,,,12397711.288,-1.35,1.196,2.699,4.199,0.918,0.923,3.724,3.23
1075.0,,,12429367.445,-1.35,1.191,2.699,4.199,0.917,0.924,3.719,3.237
1078.0,,,12461028.476,-1.35,1.183,2.699,4.199,0.92,0.923,3.732,3.236
1081.0,,,12492635.294,-1.35,1.191,2.699,4.199,0.916,0.92,3.716,3.221
1084.0,,,12524184.256,-1.35,1.173,2.699,4.199,0.912,0.918,3.7,3.217
1087.0,,,12555636.108,-1.35,1.209,2.699,4.199,0.911,0.915,3.697,3.206
1090.0,,,12587079.389,-1.35,1.184,2.699,4.199,0.913,0.919,3.705,3.222
1093.0,,,12619385.986,-1.35,1.188,2.699,4.199,0.922,0.923,3.74,3.239
1096.0,,,12651001.045,-1.35,1.182,2.699,4.199,0.912,0.916,3.7,3.215
1099.0,,,12682512.134,-1.35,1.178,2.699,4.199,0.913,0.914,3.702,3.208
1102.0,,,12713771.775,-1.35,1.198,2.699,4.199,0.903,0.903,3.665,3.166
1105.0,,,12744857.803,-1.35,1.185,2.699,4.199,0.894,0.899,3.627,3.153
1108.0,,,12775826.778,-1.35,1.209,2.699,4.199,0.892,0.896,3.62,3.145
1111.0,,,12806642.729,-1.35,1.193,2.699,4.199,0.886,0.885,3.597,3.102
1114.0,,,12837328.157,-1.35,1.2,2.699,4.199,0.881,0.886,3.577,3.109
1117.0,,,12859812.757,0.0,0.675,3.455,4.029,0.363,0.0,1.425,0.0
1120.0,,,12888870.927,-1.35,1.18,2.699,4.199,0.914,0.914,3.705,3.22
1123.0,,,12919891.759,-1.35,1.209,2.699,4.2,0.902,0.904,3.656,3.177
1126.0,,,12950789.149,-1.35,1.195,2.699,4.199,0.893,0.902,3.624,3.172
1129.0,,,12981624.127,-1.35,1.209,2.699,4.199,0.892,0.893,3.616,3.137
1132.0,,,13007992.626,-1.35,1.183,2.699,4.199,0.882,0.883,3.581,3.098
1135.0,,,13038544.586,-1.35,1.197,2.699,4.199,0.877,0.877,3.559,3.076
1138.0,,,13068974.977,-1.35,1.196,2.699,4.199,0.871,0.873,3.536,3.06
1141.0,,,13099247.362,-1.35,1.196,2.699,4.199,0.862,0.862,3.502,3.018
1144.0,,,13129474.647,-1.35,1.198,2.699,4.199,0.862,0.864,3.501,3.029
1147.0,,,13159580.632,-1.35,1.192,2.699,4.199,0.852,0.854,3.461,2.985
1150.0,,,13189500.758,-1.35,1.22,2.699,4.199,0.845,0.848,3.437,2.964
1153.0,,,13219395.016,-1.35,1.198,2.699,4.199,0.843,0.847,3.427,2.959
1156.0,,,13249260.158,-1.35,1.222,2.699,4.199,0.841,0.845,3.417,2.952
1159.0,,,13279089.845,-1.35,1.193,2.699,4.199,0.842,0.845,3.422,2.952
1162.0,,,13308955.816,-1.35,1.197,2.699,4.199,0.842,0.844,3.425,2.952
1165.0,,,13338756.18,-1.35,1.207,2.699,4.199,0.841,0.843,3.418,2.945
1168.0,,,13369229.36,-1.35,1.175,2.699,4.199,0.809,0.91,3.318,3.209
1171.0,,,13400458.627,-1.35,1.189,2.699,4.199,0.905,0.905,3.668,3.175
1174.0,,,13431459.639,-1.35,1.174,2.699,4.199,0.893,0.897,3.623,3.141
1177.0,,,13462475.549,-1.35,1.179,2.699,4.199,0.893,0.895,3.624,3.137
1180.0,,,13493360.776,-1.35,1.184,2.699,4.199,0.88,0.882,3.572,3.085
1183.0,,,13524149.531,-1.35,1.194,2.699,4.199,0.871,0.873,3.539,3.05
1186.0,,,13554845.181,-1.35,1.186,2.923,4.199,0.871,0.839,3.539,2.954
1189.0,,,13586044.222,-1.35,1.205,2.699,4.199,0.873,0.872,3.546,3.047
1192.0,,,13616782.677,-1.35,1.203,2.699,4.199,0.863,0.865,3.508,3.019
1195.0,,,13647401.807,-1.35,1.191,2.699,4.199,0.854,0.858,3.471,2.99
1198.0,,,13677937.208,-1.35,1.19,2.699,4.199,0.849,0.852,3.453,2.969
1201.0,,,13708309.126,-1.35,1.195,2.699,4.199,0.843,0.845,3.431,2.945
1204.0,,,13738614.343,-1.35,1.199,2.699,4.199,0.842,0.844,3.426,2.94
1207.0,,,13768802.716,-1.35,1.193,2.699,4.199,0.836,0.839,3.403,2.922
1210.0,,,13798875.042,-1.35,1.202,2.699,4.199,0.832,0.834,3.388,2.902
1213.0,,,13824030.594,-1.35,0.675,2.699,4.196,0.587,0.615,2.357,2.114
1216.0,,,13854458.563,-1.35,1.195,2.699,4.199,0.832,0.831,3.385,2.893
1219.0,,,13884375.241,-1.35,1.205,2.699,4.199,0.826,0.828,3.364,2.881
1222.0,,,13914341.407,-1.35,1.198,2.699,4.199,0.826,0.835,3.364,2.911
1225.0,,,13944201.007,-1.35,1.211,2.699,4.199,0.822,0.828,3.347,2.882
1228.0,,,13974032.632,-1.35,1.209,2.699,4.199,0.822,0.828,3.346,2.885
1231.0,,,14003906.079,-1.35,1.209,2.699,4.199,0.825,0.834,3.359,2.907
1234.0,,,14033771.556,-1.35,1.206,2.699,4.199,0.825,0.829,3.358,2.889
1237.0,,,14064298.468,-1.35,1.206,2.699,4.199,0.806,0.849,3.306,2.967
1240.0,,,14094738.664,-1.35,1.207,2.699,4.199,0.841,0.842,3.422,2.935
1243.0,,,14124871.122,-1.35,1.19,2.699,4.199,0.832,0.836,3.385,2.911
1246.0,,,14154925.298,-1.35,1.188,2.699,4.199,0.831,0.833,3.381,2.9
1249.0,,,14184897.287,-1.35,1.195,2.699,4.199,0.826,0.828,3.363,2.881
1252.0,,,14214811.053,-1.35,1.189,2.699,4.199,0.821,0.825,3.344,2.869
1255.0,,,14244654.489,-1.35,1.191,2.699,4.199,0.82,0.822,3.34,2.856
1258.0,,,14274430.702,-1.35,1.198,2.699,4.199,0.816,0.819,3.324,2.844
1261.0,,,14304169.278,-1.35,1.199,2.699,4.199,0.815,0.817,3.32,2.839
1264.0,,,14329035.008,-1.35,0.675,2.699,4.199,0.579,0.606,2.326,2.081
1267.0,,,14359254.34,-1.35,1.197,2.699,4.199,0.816,0.821,3.323,2.854
1270.0,,,14389007.584,-1.35,1.207,2.699,4.199,0.816,0.818,3.322,2.844
1273.0,,,14418797.969,-1.35,1.199,2.699,4.199,0.819,0.825,3.335,2.876
1276.0,,,14448553.797,-1.35,1.199,2.699,4.199,0.816,0.819,3.32,2.85
1279.0,,,14478225.89,-1.35,1.192,2.699,4.199,0.811,0.818,3.304,2.843
1282.0,,,14507961.339,-1.35,1.207,2.699,4.199,0.819,0.826,3.334,2.879
1285.0,,,14537639.02,-1.35,1.203,2.699,4.199,0.819,0.822,3.333,2.863
1288.0,,,14568115.286,-1.35,1.201,2.699,4.199,0.837,0.832,3.405,2.898
1291.0,,,14593523.335,-1.35,1.207,2.699,4.199,0.823,0.823,3.35,2.864
1294.0,,,14623349.51,-1.35,1.198,2.699,4.199,0.82,0.824,3.337,2.868
1297.0,,,14653109.012,-1.35,1.201,2.699,4.199,0.819,0.819,3.333,2.849
1300.0,,,14682721.254,-1.35,1.206,2.699,4.199,0.81,0.812,3.301,2.82
1303.0,,,14712259.37,-1.35,1.224,2.699,4.199,0.805,0.81,3.28,2.813
1306.0,,,14741745.178,-1.35,1.219,2.699,4.199,0.805,0.807,3.279,2.803
1309.0,,,14771187.294,-1.35,1.23,2.699,4.2,0.803,0.808,3.272,2.806
1312.0,,,14800592.03,-1.35,1.219,2.699,4.199,0.8,0.805,3.259,2.794
1315.0,,,14829927.245,-1.35,1.208,2.699,4.199,0.799,0.802,3.254,2.784
1318.0,,,14854697.356,-1.35,1.211,2.699,4.199,0.799,0.799,3.258,2.774
1321.0,,,14883992.015,-1.35,1.195,2.699,4.199,0.794,0.8,3.236,2.776
1324.0,,,14913225.815,-1.35,1.202,2.699,4.199,0.793,0.798,3.233,2.77
1327.0,,,14942406.162,-1.35,1.205,2.699,4.199,0.792,0.795,3.23,2.757
1330.0,,,14971631.577,-1.35,1.207,2.699,4.199,0.794,0.803,3.236,2.79
1333.0,,,14995973.939,-1.35,0.675,2.699,4.197,0.552,0.579,2.218,1.983
1336.0,,,15026109.991,-1.35,1.202,2.699,4.199,0.821,0.829,3.34,2.894
1339.0,,,15057002.526,-1.35,1.195,2.699,4.199,0.833,0.825,3.389,2.876
1342.0,,,15087240.939,-1.35,1.216,2.699,4.199,0.847,0.856,3.44,2.998
1345.0,,,15117150.189,-1.35,1.199,2.699,4.199,0.82,0.823,3.337,2.864
1348.0,,,15146835.544,-1.35,1.195,2.699,4.199,0.813,0.812,3.309,2.822
1351.0,,,15176963.97,-1.35,1.193,2.699,4.199,0.841,0.847,3.415,2.965
1354.0,,,15207301.353,-1.35,1.202,2.699,4.199,0.851,0.856,3.455,3.002
1357.0,,,15237754.301,-1.35,1.197,2.699,4.199,0.859,0.863,3.486,3.028
1360.0,,,15268300.259,-1.35,1.197,2.699,4.199,0.861,0.868,3.493,3.046
1363.0,,,15298890.981,-1.35,1.195,2.699,4.199,0.865,0.87,3.507,3.054
1366.0,,,15329526.245,-1.35,1.192,2.699,4.199,0.869,0.874,3.522,3.071
1369.0,,,15360027.61,-1.35,1.195,2.699,4.199,0.861,0.845,3.49,2.958
1372.0,,,15389907.069,-1.35,1.205,2.699,4.199,0.819,0.815,3.329,2.837
1375.0,,,15410234.193,0.0,0.675,3.477,3.88,0.075,0.0,0.29,0.0
1378.0,,,15440131.504,-1.35,1.182,2.699,4.199,0.834,0.844,3.388,2.956
1381.0,,,15470217.044,-1.35,1.188,2.699,4.199,0.846,0.838,3.434,2.929
1384.0,,,15495329.336,0.0,1.204,3.465,4.199,0.764,0.0,3.099,0.0
1387.0,,,15519403.106,-1.35,1.193,2.699,4.199,0.823,0.837,3.347,2.925
1390.0,,,15549371.87,-1.35,1.193,2.699,4.199,0.841,0.845,3.416,2.96
1393.0,,,15579443.079,-1.35,1.193,2.699,4.199,0.843,0.849,3.421,2.975
1396.0,,,15604810.816,-1.35,0.675,2.699,4.199,0.613,0.643,2.456,2.227
1399.0,,,15635367.911,-1.35,1.19,2.699,4.199,0.847,0.85,3.436,2.98
1402.0,,,15665499.014,-1.35,1.188,2.699,4.199,0.846,0.85,3.435,2.981
1405.0,,,15695600.846,-1.35,1.191,2.699,4.199,0.846,0.85,3.435,2.981
1408.0,,,15725265.649,-1.35,1.193,2.699,4.199,0.821,0.812,3.335,2.83
1411.0,,,15747606.612,0.0,0.675,3.48,4.164,0.509,0.0,2.035,0.0
1414.0,,,15773776.486,-1.35,1.213,2.699,4.199,0.79,0.807,3.22,2.811
1417.0,,,15803126.096,-1.35,1.2,2.699,4.199,0.807,0.794,3.28,2.76
1420.0,,,15831999.665,-1.35,1.213,2.699,4.2,0.783,0.788,3.19,2.736
1423.0,,,15860807.879,-1.35,1.2,2.699,4.199,0.779,0.791,3.174,2.751
1426.0,,,15889843.584,-1.35,1.2,2.699,4.199,0.795,0.781,3.233,2.71
1429.0,,,15918449.036,-1.35,1.196,2.699,4.199,0.772,0.776,3.145,2.69
1432.0,,,15947076.603,-1.35,1.2,2.699,4.199,0.769,0.782,3.136,2.716
1435.0,,,15971463.989,-1.35,1.206,2.699,4.199,0.79,0.784,3.214,2.726
1438.0,,,16000030.221,-1.35,1.209,2.699,4.2,0.766,0.77,3.123,2.669
1441.0,,,16028484.067,-1.35,1.201,2.699,4.199,0.758,0.768,3.093,2.662
1444.0,,,16057172.143,-1.35,1.207,2.699,4.199,0.784,0.78,3.19,2.711
1447.0,,,16085538.269,-1.35,1.217,2.699,4.2,0.76,0.764,3.097,2.648
1450.0,,,16113779.089,-1.35,1.211,2.699,4.199,0.754,0.757,3.077,2.62
1453.0,,,16142374.02,-1.35,1.208,2.699,4.199,0.779,0.785,3.17,2.734
1456.0,,,16171212.28,-1.35,1.199,2.699,4.199,0.789,0.795,3.21,2.773
1459.0,,,16200178.244,-1.35,1.215,2.699,4.199,0.797,0.801,3.241,2.796
1462.0,,,16229961.082,-1.35,1.216,2.699,4.199,0.767,0.788,3.149,2.751
1465.0,,,16254042.425,-1.35,0.675,2.699,4.197,0.542,0.582,2.176,2.0
1468.0,,,16283505.522,-1.35,1.202,2.699,4.199,0.795,0.787,3.232,2.736
1471.0,,,16311920.099,-1.35,1.209,2.699,4.199,0.758,0.763,3.09,2.641
1474.0,,,16340293.401,-1.35,1.22,2.699,4.2,0.756,0.766,3.081,2.653
1477.0,,,16368726.301,-1.35,1.216,2.699,4.199,0.776,0.768,3.16,2.665
1480.0,,,16396893.375,-1.35,1.202,2.699,4.199,0.753,0.758,3.069,2.623
1483.0,,,16424981.996,-1.35,1.198,2.699,4.199,0.748,0.752,3.051,2.6
1486.0,,,16453274.159,-1.35,1.197,2.699,4.199,0.766,0.765,3.118,2.656
1489.0,,,16481298.868,-1.35,1.221,2.699,4.2,0.746,0.751,3.043,2.6
1492.0,,,16509107.471,-1.35,1.215,2.699,4.199,0.736,0.74,3.003,2.553
1495.0,,,16537296.604,-1.35,1.211,2.699,4.199,0.761,0.765,3.1,2.658
1498.0,,,16565149.999,-1.35,1.198,2.699,4.199,0.737,0.741,3.005,2.56
1501.0,,,16592827.597,-1.35,1.203,2.699,4.199,0.73,0.729,2.981,2.511
1504.0,,,16620854.048,-1.35,1.195,2.699,4.199,0.754,0.759,3.074,2.634
1507.0,,,16649123.045,-1.35,1.197,2.699,4.199,0.761,0.767,3.099,2.665
1510.0,,,16677506.713,-1.35,1.206,2.699,4.199,0.769,0.772,3.133,2.685
1513.0,,,16706746.586,-1.35,1.193,2.699,4.199,0.768,0.754,3.126,2.615
1516.0,,,16735009.696,-1.35,1.199,2.699,4.199,0.756,0.765,3.083,2.656
1519.0,,,16763011.885,-1.35,1.199,2.699,4.2,0.744,0.741,3.033,2.559
1522.0,,,16790736.491,-1.35,1.195,2.699,4.2,0.734,0.737,2.995,2.547
1525.0,,,16818316.822,-1.35,1.194,2.699,4.199,0.73,0.742,2.978,2.567
1528.0,,,16846051.64,-1.35,1.201,2.699,4.199,0.734,0.729,2.994,2.517
1531.0,,,16873372.891,-1.35,1.194,2.699,4.199,0.718,0.719,2.934,2.48
1534.0,,,16900531.633,-1.35,1.226,2.699,4.199,0.709,0.722,2.898,2.491
1537.0,,,16927829.278,-1.35,1.197,2.699,4.199,0.73,0.719,2.978,2.482
1540.0,,,16954753.426,-1.35,1.216,2.699,4.199,0.706,0.71,2.885,2.446
1543.0,,,16981660.59,-1.35,1.193,2.699,4.199,0.705,0.71,2.88,2.445
1546.0,,,17008878.25,-1.35,1.196,2.699,4.199,0.728,0.731,2.971,2.531
1549.0,,,17035691.106,-1.35,1.224,2.699,4.199,0.7,0.7,2.859,2.41
1552.0,,,17062258.404,-1.35,1.2,2.699,4.199,0.694,0.694,2.838,2.385
1555.0,,,17089108.74,-1.35,1.203,2.699,4.199,0.71,0.718,2.898,2.479
1558.0,,,17116248.366,-1.35,1.203,2.699,4.199,0.723,0.727,2.951,2.515
1561.0,,,17143565.036,-1.35,1.21,2.699,4.199,0.729,0.733,2.972,2.539
1564.0,,,17171840.636,-1.35,1.193,2.699,4.2,0.724,0.72,2.954,2.483
1567.0,,,17199215.223,-1.35,1.191,2.699,4.199,0.73,0.737,2.978,2.547
1570.0,,,17226606.904,-1.35,1.202,2.699,4.199,0.716,0.714,2.924,2.457
1573.0,,,17253709.282,-1.35,1.201,2.699,4.199,0.711,0.712,2.902,2.452
1576.0,,,17280760.97,-1.35,1.195,2.699,4.199,0.711,0.719,2.903,2.482
1579.0,,,17307816.179,-1.35,1.204,2.699,4.199,0.709,0.703,2.895,2.418
1582.0,,,17334691.124,-1.35,1.203,2.699,4.199,0.701,0.703,2.865,2.419
1585.0,,,17361365.975,-1.35,1.197,2.814,4.199,0.695,0.681,2.842,2.363
1588.0,,,17389430.477,-1.35,1.19,2.699,4.199,0.732,0.736,2.984,2.547
1591.0,,,17416919.229,-1.35,1.192,2.699,4.199,0.728,0.72,2.967,2.478
1594.0,,,17444030.711,-1.35,1.203,2.699,4.199,0.71,0.712,2.9,2.449
1597.0,,,17466607.799,-1.35,1.217,2.699,4.199,0.697,0.701,2.849,2.41
1600.0,,,17493855.419,-1.35,1.189,2.699,4.199,0.719,0.719,2.935,2.48
1603.0,,,17520600.656,-1.35,1.191,2.699,4.199,0.693,0.697,2.833,2.394
1606.0,,,17547182.548,-1.35,1.192,2.699,4.199,0.687,0.687,2.807,2.356
1609.0,,,17574004.732,-1.35,1.188,2.699,4.199,0.702,0.709,2.868,2.443
1612.0,,,17600215.715,-1.35,1.192,2.699,4.199,0.67,0.671,2.741,2.294
1615.0,,,17621804.02,-1.35,1.196,2.699,4.199,0.666,0.668,2.726,2.286
1618.0,,,17647798.721,-1.35,1.195,2.699,4.199,0.666,0.679,2.724,2.331
1621.0,,,17674080.329,-1.35,1.195,2.699,4.199,0.677,0.664,2.767,2.273
1624.0,,,17699880.442,-1.35,1.193,2.699,4.199,0.658,0.662,2.692,2.265
1627.0,,,17725436.278,-1.35,1.209,2.699,4.199,0.646,0.652,2.644,2.226
1630.0,,,17751499.514,-1.35,1.191,2.699,4.199,0.673,0.681,2.752,2.341
1633.0,,,17777857.142,-1.35,1.196,2.699,4.199,0.684,0.691,2.795,2.377
1636.0,,,17805248.444,-1.35,1.213,2.699,4.199,0.664,0.692,2.736,2.391
1639.0,,,17831784.245,-1.35,1.189,2.699,4.199,0.678,0.687,2.772,2.357
1642.0,,,17858525.443,-1.35,1.18,2.699,4.199,0.702,0.695,2.865,2.387
1645.0,,,17884845.064,-1.35,1.194,2.699,4.2,0.674,0.677,2.755,2.319
1648.0,,,17911006.595,-1.35,1.195,2.699,4.199,0.667,0.667,2.729,2.281
1651.0,,,17937435.88,-1.35,1.187,2.699,4.199,0.683,0.69,2.791,2.371
1654.0,,,17963513.758,-1.35,1.186,2.699,4.2,0.665,0.667,2.718,2.284
1657.0,,,17989383.373,-1.35,1.194,2.699,4.199,0.662,0.655,2.705,2.237
1660.0,,,18015087.514,-1.35,1.211,2.699,4.199,0.661,0.672,2.702,2.305
1663.0,,,18041342.26,-1.35,1.187,2.699,4.199,0.68,0.684,2.778,2.35
1666.0,,,18063534.985,-1.35,1.196,2.699,4.199,0.687,0.687,2.806,2.364
1669.0,,,18090042.873,-1.35,1.198,2.699,4.199,0.687,0.692,2.807,2.382
1672.0,,,18116586.803,-1.35,1.193,2.699,4.199,0.691,0.694,2.821,2.39
1675.0,,,18143156.988,-1.35,1.195,2.699,4.199,0.691,0.695,2.822,2.392
1678.0,,,18169784.973,-1.35,1.194,2.699,4.199,0.692,0.696,2.825,2.396
1681.0,,,18196407.526,-1.35,1.19,2.699,4.199,0.692,0.695,2.824,2.39
1684.0,,,18222051.691,-1.35,1.196,2.699,4.199,0.645,0.641,2.64,2.183
1687.0,,,18247939.816,-1.35,1.191,2.699,4.199,0.627,0.615,2.566,2.086
1690.0,,,18273184.739,-1.35,1.184,2.699,4.199,0.641,0.645,2.624,2.199
1693.0,,,18297769.496,-1.35,1.182,2.699,4.199,0.602,0.604,2.47,2.045
1696.0,,,18322116.978,-1.35,1.191,2.699,4.199,0.601,0.602,2.464,2.038
1699.0,,,18346459.293,-1.35,1.179,2.699,4.199,0.607,0.618,2.489,2.097
1702.0,,,18371095.304,-1.35,1.175,2.699,4.199,0.606,0.596,2.485,2.015
1705.0,,,18395032.365,-1.35,1.19,2.699,4.199,0.589,0.59,2.415,1.996
1708.0,,,18418730.306,-1.35,1.188,2.699,4.199,0.575,0.574,2.36,1.937
1711.0,,,18443001.818,-1.35,1.181,2.699,4.199,0.605,0.612,2.482,2.076
1714.0,,,18467838.823,-1.35,1.181,2.699,4.199,0.619,0.623,2.534,2.116
1717.0,,,18492875.522,-1.35,1.201,2.699,4.199,0.622,0.626,2.547,2.128
1720.0,,,18517951.832,-1.35,1.186,2.699,4.199,0.625,0.627,2.558,2.133
1723.0,,,18543050.878,-1.35,1.185,2.699,4.199,0.625,0.627,2.56,2.132
1726.0,,,18568173.178,-1.35,1.187,2.699,4.199,0.624,0.626,2.557,2.128
1729.0,,,18593261.573,-1.35,1.182,2.699,4.199,0.624,0.625,2.556,2.124
1732.0,,,18618316.379,-1.35,1.187,2.699,4.199,0.62,0.624,2.54,2.121
1735.0,,,18642031.842,-1.35,1.177,2.699,4.199,0.563,0.559,2.312,1.881