File: Li-ion_Batteries/CALCE_CX2-25_prism_LCO_25C_0-100_0.5-0.5C_b_cycle_data.csv
Cycle_Index,Start_Time,End_Time,Test_Time (s),Min_Current (A),Max_Current (A),Min_Voltage (V),Max_Voltage (V),Charge_Capacity (Ah),Discharge_Capacity (Ah),Charge_Energy (Wh),Discharge_Energy (Wh)
1.0,,,17206.108,-0.675,1.19,2.699,4.2,1.367,1.363,5.49,5.039
4.0,,,68486.904,-0.675,1.183,2.699,4.2,1.362,1.361,5.457,5.039
7.0,,,119508.4,-0.675,1.178,2.699,4.2,1.358,1.354,5.424,5.018
10.0,,,170350.611,-0.674,1.18,2.699,4.2,1.35,1.354,5.397,5.028
13.0,,,221000.235,-0.674,1.174,2.699,4.2,1.348,1.345,5.386,4.984
16.0,,,271591.348,-0.674,1.17,2.699,4.2,1.348,1.348,5.38,5.011
19.0,,,322051.999,-0.675,1.179,2.699,4.2,1.339,1.338,5.353,4.96
22.0,,,372362.839,-0.674,1.165,2.699,4.2,1.343,1.344,5.359,4.999
25.0,,,422404.441,-0.675,1.161,2.699,4.2,1.343,1.344,5.352,5.001
28.0,,,472338.365,-0.675,1.159,2.699,4.2,1.342,1.343,5.347,4.999
31.0,,,514227.415,-0.674,0.675,2.699,4.196,1.151,1.155,4.542,4.251
34.0,,,564230.437,-0.675,1.166,2.699,4.2,1.333,1.332,5.326,4.941
37.0,,,614250.296,-0.674,1.159,2.699,4.2,1.334,1.336,5.322,4.968
40.0,,,664203.537,-0.674,1.171,2.699,4.2,1.326,1.325,5.299,4.915
43.0,,,713956.012,-0.675,1.158,2.699,4.2,1.328,1.326,5.297,4.919
46.0,,,763824.369,-0.675,1.16,2.699,4.2,1.321,1.322,5.279,4.9
49.0,,,813490.372,-0.675,1.159,2.699,4.2,1.323,1.321,5.287,4.899
52.0,,,863204.732,-0.675,1.166,2.699,4.2,1.32,1.324,5.278,4.918
55.0,,,913354.01,-0.674,1.174,2.699,4.2,1.343,1.344,5.368,4.99
58.0,,,963624.091,-0.674,1.172,2.699,4.2,1.337,1.334,5.343,4.948
61.0,,,1013824.719,-0.675,1.169,2.699,4.2,1.328,1.327,5.311,4.919
64.0,,,1063944.599,-0.675,1.169,2.699,4.2,1.323,1.32,5.293,4.886
67.0,,,1113936.76,-0.674,1.173,2.699,4.2,1.316,1.316,5.266,4.869
70.0,,,1163878.615,-0.675,1.176,2.699,4.2,1.313,1.312,5.255,4.852
73.0,,,1213650.185,-0.675,1.166,2.699,4.2,1.313,1.312,5.254,4.857
76.0,,,1263346.231,-0.674,1.163,2.699,4.2,1.311,1.31,5.249,4.85
79.0,,,1308471.705,-0.674,1.164,2.699,4.199,1.311,1.308,5.248,4.845
82.0,,,1353518.487,-0.675,1.161,2.699,4.2,1.308,1.307,5.237,4.839
85.0,,,1403141.856,-0.674,1.166,2.699,4.2,1.301,1.299,5.214,4.799
88.0,,,1436010.498,-0.674,1.166,2.699,4.199,1.3,1.301,5.206,4.82
91.0,,,1485391.472,-0.674,1.16,2.699,4.2,1.305,1.302,5.214,4.823
94.0,,,1518450.889,-0.674,1.152,2.699,4.2,1.299,1.302,5.198,4.829
97.0,,,1563036.24,-0.675,0.675,2.699,4.196,1.083,1.087,4.292,3.977
100.0,,,1612324.649,-0.675,1.154,2.699,4.2,1.299,1.303,5.202,4.84
103.0,,,1661502.49,-0.675,1.151,2.699,4.2,1.296,1.296,5.19,4.802
106.0,,,1710700.427,-0.674,1.155,2.699,4.2,1.302,1.302,5.202,4.838
109.0,,,1759821.985,-0.674,1.158,2.699,4.2,1.295,1.293,5.184,4.791
112.0,,,1808846.126,-0.674,1.148,2.699,4.2,1.3,1.301,5.192,4.832
115.0,,,1857706.912,-0.674,1.142,2.699,4.199,1.301,1.302,5.194,4.842
118.0,,,1906512.184,-0.674,1.144,2.699,4.2,1.3,1.302,5.19,4.842
121.0,,,1955286.406,-0.674,1.145,2.699,4.2,1.299,1.303,5.185,4.847
124.0,,,2004132.45,-0.674,1.163,2.699,4.2,1.292,1.292,5.168,4.79
127.0,,,2048779.719,-0.674,0.675,2.699,4.198,1.093,1.098,4.327,4.034
130.0,,,2097640.508,-0.675,1.155,2.699,4.2,1.288,1.287,5.155,4.77
133.0,,,2142200.51,-0.675,0.675,2.699,4.199,1.092,1.096,4.322,4.025
136.0,,,2186522.368,-0.675,1.15,2.699,4.199,1.287,1.287,5.152,4.77
139.0,,,2235202.599,-0.675,1.142,2.699,4.199,1.291,1.291,5.158,4.799
142.0,,,2283969.17,-0.675,1.153,2.699,4.2,1.286,1.284,5.146,4.761
145.0,,,2333205.638,-0.674,1.145,2.699,4.2,1.311,1.309,5.229,4.868
148.0,,,2382156.717,-0.674,1.144,2.699,4.2,1.307,1.306,5.213,4.858
151.0,,,2422871.466,-0.674,1.149,2.699,4.2,1.307,1.304,5.212,4.855
154.0,,,2471584.692,-0.675,1.141,2.699,4.2,1.301,1.302,5.188,4.849
157.0,,,2520196.282,-0.674,1.144,2.699,4.2,1.3,1.298,5.182,4.834
160.0,,,2568942.315,-0.674,1.158,2.699,4.2,1.288,1.286,5.15,4.772
163.0,,,2613098.74,-0.674,1.149,2.699,4.2,1.292,1.288,5.154,4.781
166.0,,,2661737.986,-0.674,1.15,2.699,4.2,1.283,1.282,5.131,4.751
169.0,,,2710240.024,-0.675,1.151,2.699,4.2,1.284,1.28,5.134,4.743
172.0,,,2758869.94,-0.674,1.154,2.699,4.2,1.278,1.283,5.12,4.764
175.0,,,2807374.529,-0.674,1.153,2.699,4.2,1.276,1.277,5.11,4.733
178.0,,,2855825.949,-0.675,1.143,2.699,4.199,1.28,1.284,5.116,4.774
181.0,,,2904175.47,-0.675,1.153,2.699,4.199,1.275,1.273,5.104,4.72
184.0,,,2941340.079,-0.674,1.163,2.699,4.2,1.275,1.277,5.114,4.735
187.0,,,2989702.355,-0.675,1.16,2.699,4.2,1.279,1.279,5.112,4.75
190.0,,,3037973.647,-0.674,1.145,2.699,4.2,1.28,1.28,5.111,4.758
193.0,,,3086158.379,-0.674,1.148,2.699,4.2,1.278,1.279,5.101,4.756
196.0,,,3134270.279,-0.674,1.146,2.699,4.2,1.278,1.277,5.102,4.747
199.0,,,3182506.718,-0.674,1.149,2.699,4.2,1.266,1.265,5.068,4.683
202.0,,,3230752.606,-0.675,1.143,2.699,4.2,1.268,1.263,5.067,4.675
205.0,,,3278962.402,-0.674,1.157,2.699,4.2,1.26,1.261,5.051,4.667
208.0,,,3327017.743,-0.674,1.168,2.699,4.2,1.257,1.257,5.041,4.65
211.0,,,3375128.649,-0.675,1.155,2.699,4.2,1.257,1.262,5.039,4.68
214.0,,,3423162.951,-0.674,1.163,2.699,4.2,1.253,1.253,5.024,4.637
217.0,,,3471166.108,-0.674,1.16,2.699,4.2,1.26,1.26,5.045,4.676
220.0,,,3519084.872,-0.674,1.165,2.699,4.199,1.252,1.25,5.021,4.624
223.0,,,3566977.372,-0.674,1.15,2.699,4.2,1.257,1.258,5.032,4.668
226.0,,,3614736.252,-0.674,1.152,2.699,4.2,1.261,1.261,5.045,4.683
229.0,,,3662463.534,-0.674,1.143,2.699,4.2,1.26,1.261,5.039,4.685
232.0,,,3710184.727,-0.674,1.146,2.699,4.2,1.26,1.262,5.035,4.689
235.0,,,3758748.348,-0.674,1.159,2.699,4.2,1.269,1.271,5.082,4.715
238.0,,,3806979.202,-0.674,1.16,2.699,4.2,1.257,1.255,5.04,4.64
241.0,,,3855062.506,-0.674,1.156,2.699,4.2,1.262,1.262,5.052,4.683
244.0,,,3898581.357,-0.674,1.16,2.699,4.2,1.251,1.248,5.018,4.614
247.0,,,3946467.183,-0.674,1.162,2.699,4.2,1.255,1.252,5.024,4.64
250.0,,,3994380.644,-0.674,1.154,2.699,4.2,1.246,1.244,4.997,4.599
253.0,,,4042230.063,-0.674,1.158,2.699,4.2,1.248,1.242,4.998,4.59
256.0,,,4090040.127,-0.675,1.174,2.699,4.199,1.24,1.242,4.976,4.593
259.0,,,4137659.372,-0.675,1.152,2.699,4.199,1.246,1.248,4.988,4.628
262.0,,,4185223.568,-0.675,1.143,2.699,4.2,1.25,1.251,5.002,4.645
265.0,,,4232724.615,-0.675,1.144,2.699,4.2,1.25,1.252,4.998,4.65
268.0,,,4280193.307,-0.675,1.146,2.699,4.2,1.252,1.253,5.006,4.654
271.0,,,4327593.424,-0.675,1.156,2.699,4.2,1.237,1.236,4.963,4.574
274.0,,,4370608.95,-0.675,1.15,2.699,4.2,1.245,1.245,4.986,4.621
277.0,,,4418132.416,-0.675,1.16,2.699,4.2,1.236,1.234,4.96,4.566
280.0,,,4465552.77,-0.675,1.143,2.699,4.199,1.242,1.239,4.972,4.593
283.0,,,4513315.543,-0.675,1.165,2.699,4.2,1.23,1.248,4.957,4.612
286.0,,,4561540.429,-0.675,1.168,2.699,4.199,1.244,1.241,4.996,4.583
289.0,,,4604721.252,-0.675,1.161,2.699,4.199,1.239,1.237,4.972,4.566
292.0,,,4652366.787,-0.675,1.159,2.699,4.199,1.246,1.245,4.99,4.616
295.0,,,4684683.075,0.0,0.675,3.116,3.806,0.092,0.0,0.344,0.0
298.0,,,4732046.229,-0.675,1.155,2.699,4.2,1.253,1.251,5.016,4.643
301.0,,,4779732.256,-0.675,1.157,2.699,4.2,1.246,1.247,4.988,4.624
304.0,,,4827218.979,-0.675,1.145,2.699,4.2,1.249,1.246,4.995,4.62
307.0,,,4874677.173,-0.675,1.153,2.699,4.2,1.243,1.243,4.976,4.61
310.0,,,4917765.398,-0.675,1.145,2.699,4.2,1.245,1.24,4.981,4.596
313.0,,,4965124.952,-0.675,1.153,2.699,4.199,1.238,1.237,4.959,4.585
316.0,,,5012373.946,-0.675,1.152,2.699,4.2,1.238,1.236,4.957,4.581
319.0,,,5059644.949,-0.675,1.151,2.699,4.2,1.238,1.24,4.956,4.604
322.0,,,5106807.856,-0.675,1.14,2.699,4.2,1.241,1.243,4.961,4.62
325.0,,,5153942.243,-0.675,1.139,2.699,4.2,1.243,1.246,4.966,4.632
328.0,,,5201021.999,-0.675,1.139,2.699,4.2,1.243,1.246,4.964,4.632
331.0,,,5248095.611,-0.675,1.133,2.699,4.2,1.245,1.246,4.973,4.633
334.0,,,5295192.764,-0.675,1.153,2.699,4.2,1.234,1.235,4.941,4.582
337.0,,,5342222.87,-0.675,1.146,2.699,4.2,1.239,1.239,4.954,4.606
340.0,,,5389266.764,-0.675,1.14,2.699,4.2,1.233,1.234,4.933,4.58
343.0,,,5436202.965,-0.675,1.139,2.699,4.2,1.237,1.234,4.946,4.582
346.0,,,5483254.552,-0.674,1.155,2.699,4.2,1.233,1.236,4.944,4.587
349.0,,,5530272.126,-0.675,1.152,2.699,4.2,1.234,1.232,4.938,4.572
352.0,,,5577315.29,-0.675,1.159,2.699,4.2,1.23,1.234,4.925,4.586
355.0,,,5620103.885,-0.675,1.148,2.699,4.2,1.232,1.228,4.933,4.558
358.0,,,5667060.509,-0.675,1.147,2.699,4.2,1.229,1.234,4.92,4.586
361.0,,,5713937.179,-0.675,1.142,2.699,4.2,1.236,1.237,4.94,4.598
364.0,,,5760772.678,-0.675,1.139,2.699,4.2,1.236,1.238,4.937,4.604
367.0,,,5807596.942,-0.675,1.147,2.699,4.2,1.235,1.238,4.936,4.604
370.0,,,5854400.16,-0.675,1.136,2.699,4.2,1.235,1.238,4.933,4.605
373.0,,,5901211.646,-0.674,1.147,2.699,4.2,1.229,1.23,4.917,4.572
376.0,,,5947954.383,-0.674,1.147,2.699,4.2,1.234,1.234,4.932,4.588
379.0,,,5994734.035,-0.674,1.156,2.699,4.2,1.226,1.228,4.906,4.56
382.0,,,6041508.941,-0.674,1.131,2.699,4.2,1.23,1.229,4.912,4.564
385.0,,,6088233.078,-0.674,1.148,2.699,4.2,1.226,1.226,4.903,4.554
388.0,,,6134913.982,-0.674,1.144,2.699,4.2,1.226,1.224,4.906,4.546
391.0,,,6181652.681,-0.674,1.162,2.699,4.2,1.216,1.221,4.874,4.533
394.0,,,6228241.002,-0.674,1.158,2.699,4.2,1.212,1.212,4.861,4.49
397.0,,,6275679.382,-0.674,1.159,2.699,4.2,1.238,1.237,4.965,4.583
400.0,,,6323095.268,-0.674,1.17,2.699,4.2,1.234,1.229,4.947,4.551
403.0,,,6370306.037,-0.674,1.16,2.699,4.2,1.227,1.233,4.922,4.575
406.0,,,6417384.017,-0.674,1.167,2.699,4.2,1.22,1.218,4.894,4.508
409.0,,,6448682.442,-0.674,1.165,2.699,4.2,1.209,1.21,4.852,4.474
412.0,,,6495400.068,-0.675,1.147,2.699,4.2,1.222,1.216,4.892,4.504
415.0,,,6542102.08,-0.674,1.164,2.699,4.2,1.206,1.206,4.841,4.459
418.0,,,6584017.031,-0.674,1.15,2.699,4.2,1.215,1.211,4.866,4.483
421.0,,,6630658.826,-0.674,1.179,2.699,4.2,1.203,1.202,4.833,4.443
424.0,,,6677280.478,-0.674,1.157,2.699,4.2,1.208,1.203,4.844,4.45
427.0,,,6723817.281,-0.674,1.154,2.699,4.2,1.203,1.208,4.827,4.472
430.0,,,6770256.02,-0.675,1.156,2.699,4.2,1.205,1.206,4.831,4.466
433.0,,,6816737.475,-0.675,1.162,2.699,4.2,1.206,1.211,4.837,4.492
436.0,,,6863125.049,-0.675,1.143,2.699,4.2,1.211,1.214,4.849,4.506
439.0,,,6909488.47,-0.674,1.147,2.699,4.2,1.213,1.216,4.856,4.517
442.0,,,6955825.929,-0.674,1.148,2.699,4.2,1.213,1.216,4.855,4.516
445.0,,,7002174.309,-0.674,1.142,2.699,4.2,1.212,1.214,4.852,4.507
448.0,,,7048467.603,-0.674,1.151,2.699,4.2,1.201,1.202,4.82,4.454
451.0,,,7094739.71,-0.675,1.144,2.699,4.2,1.208,1.209,4.837,4.489
454.0,,,7141034.868,-0.674,1.154,2.699,4.2,1.197,1.199,4.8,4.44
457.0,,,7187259.575,-0.675,1.156,2.699,4.2,1.205,1.202,4.827,4.454
460.0,,,7233913.139,-0.674,1.156,2.699,4.2,1.21,1.212,4.85,4.498
463.0,,,7280376.446,-0.674,1.157,2.699,4.2,1.203,1.203,4.827,4.454
466.0,,,7326836.969,-0.675,1.148,2.699,4.2,1.205,1.206,4.827,4.474
469.0,,,7373130.195,-0.675,1.159,2.699,4.2,1.198,1.197,4.806,4.434
472.0,,,7419357.838,-0.675,1.162,2.699,4.2,1.202,1.203,4.818,4.464
475.0,,,7461233.432,-0.674,1.151,2.699,4.2,1.203,1.204,4.819,4.469
478.0,,,7507429.417,-0.674,1.148,2.699,4.2,1.205,1.206,4.827,4.475
481.0,,,7553600.947,-0.674,1.147,2.699,4.2,1.205,1.207,4.823,4.481
484.0,,,7599596.136,-0.674,1.143,2.699,4.2,1.205,1.195,4.822,4.426
487.0,,,7645711.775,-0.674,1.164,2.699,4.2,1.184,1.183,4.758,4.37
490.0,,,7691836.822,-0.674,1.154,2.699,4.2,1.191,1.187,4.777,4.389
493.0,,,7737913.538,-0.675,1.152,2.699,4.2,1.189,1.19,4.77,4.405
496.0,,,7783928.087,-0.674,1.163,2.699,4.2,1.188,1.188,4.768,4.397
499.0,,,7829978.004,-0.675,1.16,2.699,4.2,1.187,1.192,4.765,4.418
502.0,,,7875894.231,-0.674,1.161,2.699,4.2,1.184,1.185,4.753,4.387
505.0,,,7921841.713,-0.674,1.153,2.699,4.2,1.189,1.192,4.77,4.417
508.0,,,7968145.587,-0.675,1.145,2.699,4.2,1.181,1.217,4.758,4.513
511.0,,,8015001.664,-0.675,1.151,2.699,4.2,1.225,1.222,4.901,4.539
514.0,,,8061594.963,-0.674,1.15,2.699,4.2,1.213,1.213,4.856,4.501
517.0,,,8107997.529,-0.675,1.141,2.699,4.2,1.216,1.214,4.862,4.507
520.0,,,8154349.235,-0.675,1.152,2.699,4.2,1.207,1.207,4.832,4.48
523.0,,,8200617.408,-0.675,1.15,2.699,4.2,1.209,1.207,4.838,4.479
526.0,,,8241961.015,-0.675,1.136,2.699,4.2,1.209,1.196,4.83,4.432
529.0,,,8283912.606,-0.674,1.142,2.699,4.2,1.209,1.201,4.837,4.457
532.0,,,8330032.905,-0.674,1.162,2.699,4.2,1.183,1.182,4.751,4.367
535.0,,,8376066.895,-0.674,1.151,2.699,4.2,1.191,1.182,4.772,4.371
538.0,,,8422029.405,-0.674,1.169,2.699,4.2,1.177,1.174,4.729,4.334
541.0,,,8467964.793,-0.674,1.166,2.699,4.2,1.182,1.173,4.745,4.333
544.0,,,8513871.951,-0.675,1.168,2.699,4.2,1.171,1.168,4.708,4.307
547.0,,,8559723.367,-0.675,1.178,2.699,4.2,1.167,1.165,4.698,4.296
550.0,,,8605562.548,-0.674,1.155,2.699,4.2,1.178,1.176,4.73,4.351
553.0,,,8651329.77,-0.675,1.159,2.699,4.2,1.178,1.178,4.726,4.362
556.0,,,8697070.793,-0.674,1.161,2.699,4.2,1.18,1.177,4.737,4.36
559.0,,,8742797.926,-0.674,1.153,2.699,4.2,1.177,1.177,4.726,4.357
562.0,,,8788481.761,-0.674,1.168,2.699,4.2,1.176,1.176,4.721,4.355
565.0,,,8834125.153,-0.674,1.163,2.699,4.2,1.178,1.179,4.728,4.366
568.0,,,8879791.988,-0.674,1.16,2.699,4.2,1.178,1.175,4.727,4.351
571.0,,,8925441.79,-0.674,1.154,2.699,4.2,1.178,1.178,4.725,4.367
574.0,,,8966641.692,-0.674,1.159,2.699,4.2,1.178,1.175,4.729,4.353
577.0,,,9012679.406,-0.675,1.161,2.699,4.2,1.184,1.179,4.755,4.359
580.0,,,9058569.37,-0.674,1.16,2.699,4.2,1.177,1.175,4.729,4.347
583.0,,,9104344.563,-0.674,1.158,2.699,4.2,1.171,1.167,4.706,4.312
586.0,,,9150071.728,-0.675,1.173,2.699,4.2,1.167,1.164,4.692,4.299
589.0,,,9195723.965,-0.674,1.165,2.699,4.2,1.161,1.16,4.669,4.28
592.0,,,9241344.581,-0.674,1.165,2.699,4.2,1.16,1.159,4.666,4.28
595.0,,,9286887.931,-0.674,1.182,2.699,4.2,1.159,1.158,4.663,4.274
598.0,,,9332380.845,-0.674,1.168,2.699,4.2,1.158,1.156,4.66,4.269
601.0,,,9377820.156,-0.675,1.173,2.699,4.2,1.154,1.153,4.643,4.255
604.0,,,9423310.148,-0.675,1.164,2.699,4.2,1.163,1.159,4.669,4.282
607.0,,,9468718.679,-0.674,1.161,2.699,4.2,1.154,1.153,4.644,4.254
610.0,,,9514083.213,-0.674,1.162,2.699,4.2,1.156,1.154,4.649,4.261
613.0,,,9559443.419,-0.674,1.168,2.699,4.2,1.153,1.151,4.639,4.25
616.0,,,9604789.681,-0.674,1.162,2.699,4.2,1.156,1.152,4.647,4.251
619.0,,,9650132.136,-0.674,1.164,2.699,4.2,1.146,1.146,4.616,4.226
622.0,,,9695433.866,-0.674,1.165,2.699,4.2,1.149,1.145,4.624,4.221
625.0,,,9736226.848,-0.675,1.158,2.699,4.2,1.132,1.163,4.582,4.291
628.0,,,9782271.005,-0.675,1.173,2.699,4.2,1.165,1.16,4.688,4.273
631.0,,,9828095.095,-0.674,1.176,2.699,4.2,1.162,1.16,4.678,4.278
634.0,,,9873674.139,-0.674,1.179,2.699,4.2,1.156,1.155,4.655,4.257
637.0,,,9919211.076,-0.674,1.167,2.699,4.2,1.157,1.155,4.655,4.26
640.0,,,9964666.643,-0.674,1.168,2.699,4.2,1.151,1.148,4.634,4.231
643.0,,,10008276.134,-0.674,1.171,3.197,4.2,1.147,0.809,4.62,3.058
646.0,,,10052023.43,-0.674,1.166,2.699,4.199,1.146,1.142,4.618,4.204
649.0,,,10097366.857,-0.675,1.189,2.699,4.199,1.142,1.14,4.604,4.199
652.0,,,10142619.068,-0.674,1.183,2.699,4.2,1.141,1.138,4.599,4.188
655.0,,,10182720.108,-0.674,0.675,2.699,4.196,0.903,0.913,3.599,3.315
658.0,,,10227953.331,-0.674,1.166,2.699,4.2,1.135,1.133,4.575,4.168
661.0,,,10273057.482,-0.674,1.188,2.699,4.2,1.131,1.131,4.561,4.164
664.0,,,10312997.395,-0.674,0.675,2.699,4.198,0.896,0.903,3.572,3.275
667.0,,,10358127.014,-0.674,1.175,2.699,4.2,1.128,1.129,4.548,4.154
670.0,,,10403069.389,-0.674,1.171,2.699,4.2,1.129,1.126,4.551,4.142
673.0,,,10447994.118,-0.674,1.18,2.699,4.2,1.125,1.125,4.536,4.135
676.0,,,10492921.398,-0.675,1.184,2.699,4.2,1.126,1.122,4.543,4.127
679.0,,,10537775.685,-0.675,1.178,2.699,4.2,1.123,1.121,4.528,4.123
682.0,,,10582524.15,-0.675,1.183,2.699,4.199,1.121,1.119,4.522,4.114
685.0,,,10627312.206,-0.675,1.163,2.699,4.199,1.124,1.123,4.532,4.135
688.0,,,10671987.529,-0.675,1.197,2.699,4.199,1.122,1.119,4.525,4.117
691.0,,,10716673.877,-0.675,1.176,2.699,4.199,1.122,1.119,4.522,4.116
694.0,,,10761697.675,-0.674,1.188,2.699,4.2,1.102,1.13,4.47,4.158
697.0,,,10801918.776,-0.674,0.675,2.699,4.197,0.897,0.903,3.576,3.275
700.0,,,10842155.911,-0.674,0.675,2.699,4.196,0.897,0.905,3.577,3.283
703.0,,,10887282.015,-0.675,1.183,2.699,4.199,1.128,1.122,4.55,4.126
706.0,,,10927161.217,-0.674,1.174,2.699,4.2,1.124,1.12,4.535,4.116
709.0,,,10972078.536,-0.674,1.194,2.699,4.2,1.122,1.118,4.528,4.109
712.0,,,11016873.81,-0.674,1.19,2.699,4.2,1.12,1.118,4.518,4.114
715.0,,,11061633.441,-0.675,1.195,2.699,4.2,1.119,1.118,4.514,4.113
718.0,,,11106346.265,-0.675,1.175,2.699,4.2,1.121,1.12,4.517,4.124
721.0,,,11150964.354,-0.674,1.182,2.699,4.2,1.115,1.113,4.498,4.094
724.0,,,11195573.639,-0.674,1.172,2.699,4.199,1.117,1.115,4.504,4.105
727.0,,,11240114.215,-0.674,1.169,2.699,4.2,1.111,1.11,4.481,4.079
730.0,,,11284640.769,-0.674,1.171,2.699,4.2,1.115,1.114,4.496,4.099
733.0,,,11329118.21,-0.675,1.167,2.699,4.199,1.112,1.11,4.486,4.083
736.0,,,11373566.072,-0.675,1.168,2.699,4.2,1.115,1.113,4.493,4.101
739.0,,,11417997.037,-0.674,1.172,2.699,4.2,1.111,1.111,4.479,4.091
742.0,,,11462380.447,-0.674,1.165,2.699,4.2,1.116,1.113,4.496,4.097
745.0,,,11507518.465,-0.674,1.175,2.699,4.2,1.133,1.123,4.567,4.129
748.0,,,11552526.299,-0.674,1.183,2.699,4.2,1.122,1.117,4.527,4.103
751.0,,,11597326.326,-0.674,1.177,2.699,4.2,1.117,1.112,4.506,4.085
754.0,,,11642016.173,-0.674,1.182,2.699,4.2,1.11,1.109,4.482,4.073
757.0,,,11686635.052,-0.674,1.181,2.699,4.2,1.115,1.11,4.497,4.08
760.0,,,11731132.014,-0.675,1.182,2.699,4.199,1.107,1.107,4.471,4.068
763.0,,,11769606.697,-0.674,1.132,2.699,4.2,0.56,1.107,2.314,4.069
766.0,,,11814062.552,-0.674,1.18,2.699,4.2,1.105,1.103,4.459,4.05
769.0,,,11858464.761,-0.675,1.177,2.699,4.2,1.106,1.104,4.464,4.058
772.0,,,11902828.903,-0.675,1.18,2.699,4.2,1.1,1.1,4.442,4.037
775.0,,,11947169.319,-0.675,1.192,2.699,4.2,1.102,1.102,4.448,4.049
778.0,,,11991441.577,-0.674,1.185,2.699,4.2,1.102,1.101,4.446,4.046
781.0,,,12035674.823,-0.674,1.182,2.699,4.2,1.104,1.101,4.453,4.048
784.0,,,12079873.133,-0.675,1.183,2.699,4.199,1.095,1.095,4.42,4.018
787.0,,,12124015.728,-0.674,1.171,2.699,4.199,1.098,1.094,4.432,4.016
790.0,,,12168150.502,-0.674,1.195,2.699,4.2,1.093,1.092,4.414,4.011
793.0,,,12212213.997,-0.675,1.182,2.699,4.2,1.097,1.093,4.428,4.017
796.0,,,12256281.613,-0.674,1.173,2.699,4.2,1.092,1.089,4.409,4.0
799.0,,,12300276.667,-0.675,1.179,2.699,4.199,1.09,1.086,4.405,3.986
802.0,,,12344225.881,-0.675,1.184,2.699,4.199,1.087,1.086,4.392,3.984
805.0,,,12388129.942,-0.675,1.179,2.699,4.199,1.088,1.086,4.394,3.988
808.0,,,12432036.294,-0.675,1.17,2.699,4.2,1.088,1.086,4.394,3.987
811.0,,,12475895.57,-0.675,1.173,2.699,4.199,1.087,1.086,4.39,3.989
814.0,,,12515198.323,-0.674,0.675,2.699,4.197,0.868,0.875,3.464,3.171
817.0,,,12554680.681,-0.674,1.195,2.699,4.2,1.105,1.092,4.463,4.004
820.0,,,12599010.427,-0.675,1.182,2.699,4.2,1.098,1.095,4.435,4.022
823.0,,,12643148.859,-0.674,1.183,2.699,4.2,1.091,1.086,4.408,3.984
826.0,,,12687245.434,-0.675,1.174,2.699,4.2,1.093,1.091,4.411,4.008
829.0,,,12731248.113,-0.674,1.175,2.699,4.199,1.089,1.087,4.399,3.989
832.0,,,12775178.69,-0.674,1.173,2.699,4.2,1.091,1.089,4.403,4.0
835.0,,,12819074.799,-0.674,1.183,2.699,4.199,1.088,1.085,4.392,3.983
838.0,,,12862963.973,-0.675,1.206,2.699,4.2,1.087,1.085,4.39,3.984
841.0,,,12906740.274,-0.674,1.203,2.699,4.199,1.081,1.076,4.37,3.943
844.0,,,12950506.881,-0.674,1.176,2.699,4.2,1.079,1.078,4.36,3.956
847.0,,,12989117.782,-0.674,1.185,2.699,4.199,1.083,1.073,4.375,3.936
850.0,,,13032834.395,-0.675,1.167,2.699,4.2,1.079,1.076,4.36,3.947
853.0,,,13076466.435,-0.675,1.195,2.699,4.199,1.073,1.069,4.338,3.917
856.0,,,13120126.767,-0.674,1.206,2.699,4.2,1.079,1.074,4.358,3.943
859.0,,,13163684.636,-0.675,1.213,2.699,4.2,1.072,1.068,4.335,3.914
862.0,,,13207229.762,-0.675,1.199,2.699,4.2,1.077,1.074,4.349,3.942
865.0,,,13251911.033,-0.675,1.175,2.699,4.2,1.107,1.098,4.463,4.035
868.0,,,13296085.412,-0.674,1.196,2.699,4.2,1.096,1.096,4.421,4.032
871.0,,,13340274.256,-0.675,1.178,2.699,4.2,1.096,1.092,4.419,4.014
874.0,,,13384320.349,-0.675,1.183,2.699,4.2,1.089,1.088,4.396,3.996
877.0,,,13428244.403,-0.674,1.171,2.699,4.199,1.086,1.082,4.385,3.972
880.0,,,13472122.98,-0.674,1.179,2.699,4.2,1.084,1.083,4.379,3.975
883.0,,,13515963.683,-0.675,1.183,2.699,4.2,1.083,1.079,4.372,3.961
886.0,,,13559741.046,-0.674,1.191,2.699,4.2,1.077,1.077,4.348,3.953
889.0,,,13598356.761,-0.674,1.18,2.699,4.2,1.08,1.074,4.363,3.938
892.0,,,13642066.936,-0.674,1.185,2.699,4.2,1.074,1.071,4.341,3.927
895.0,,,13685786.468,-0.675,1.171,2.699,4.2,1.077,1.072,4.349,3.933
898.0,,,13729420.119,-0.675,1.184,2.699,4.2,1.072,1.072,4.333,3.933
901.0,,,13772963.059,-0.675,1.173,2.699,4.199,1.072,1.068,4.329,3.917
904.0,,,13816498.159,-0.675,1.202,2.699,4.2,1.069,1.069,4.321,3.922
907.0,,,13859999.649,-0.675,1.185,2.699,4.199,1.071,1.067,4.326,3.911
910.0,,,13903466.396,-0.675,1.171,2.699,4.2,1.068,1.068,4.314,3.92
913.0,,,13947422.692,-0.675,1.165,2.699,4.2,1.04,1.081,4.23,3.974
916.0,,,13991695.179,-0.675,1.185,2.699,4.2,1.089,1.084,4.396,3.981
919.0,,,14035646.634,-0.675,1.175,2.699,4.199,1.087,1.084,4.389,3.983
922.0,,,14079496.5,-0.675,1.176,2.699,4.2,1.085,1.082,4.38,3.977
925.0,,,14123312.187,-0.675,1.177,2.699,4.2,1.083,1.082,4.371,3.973
928.0,,,14167059.181,-0.675,1.175,2.699,4.2,1.076,1.076,4.344,3.95
931.0,,,14210703.279,-0.675,1.178,2.699,4.2,1.076,1.077,4.339,3.954
934.0,,,14254280.546,-0.675,1.182,2.699,4.199,1.07,1.07,4.321,3.925
937.0,,,14297858.234,-0.675,1.183,2.699,4.2,1.07,1.069,4.319,3.922
940.0,,,14341400.447,-0.675,1.181,2.699,4.2,1.07,1.068,4.321,3.922
943.0,,,14384905.609,-0.675,1.177,2.699,4.199,1.068,1.067,4.314,3.915
946.0,,,14428366.596,-0.675,1.194,2.699,4.2,1.069,1.066,4.316,3.913
949.0,,,14471762.678,-0.675,1.196,2.699,4.2,1.069,1.068,4.316,3.921
952.0,,,14515148.584,-0.675,1.179,2.699,4.199,1.065,1.063,4.3,3.901
955.0,,,14558490.436,-0.675,1.179,2.699,4.2,1.064,1.063,4.298,3.9
958.0,,,14601748.748,-0.675,1.183,2.699,4.2,1.059,1.06,4.277,3.89
961.0,,,14645113.077,-0.675,1.189,2.699,4.2,1.063,1.061,4.292,3.897
964.0,,,14689001.539,-0.675,1.19,2.699,4.2,1.08,1.071,4.361,3.931
967.0,,,14732742.678,-0.675,1.198,2.699,4.2,1.072,1.07,4.33,3.924
970.0,,,14769757.448,-0.675,1.112,2.699,4.2,0.469,1.075,1.948,3.948
973.0,,,14813352.689,-0.675,1.178,2.699,4.2,1.073,1.068,4.332,3.924
976.0,,,14856745.432,-0.675,1.179,2.699,4.2,1.069,1.068,4.315,3.922
979.0,,,14900179.048,-0.675,1.175,2.699,4.199,1.064,1.062,4.295,3.9
982.0,,,14943551.348,-0.675,1.186,2.699,4.2,1.065,1.062,4.301,3.897
985.0,,,14981730.305,-0.675,1.182,2.699,4.2,1.06,1.057,4.281,3.878
988.0,,,15024971.429,-0.675,1.205,2.699,4.2,1.058,1.059,4.274,3.883
991.0,,,15068159.896,-0.675,1.186,2.699,4.199,1.053,1.053,4.256,3.86
994.0,,,15111223.402,-0.675,1.174,2.699,4.2,1.05,1.049,4.242,3.846
997.0,,,15154455.093,-0.675,1.171,2.699,4.2,1.054,1.052,4.256,3.859
1000.0,,,15197531.34,-0.675,1.18,2.699,4.2,1.052,1.051,4.25,3.852
1003.0,,,15240544.896,-0.675,1.182,2.699,4.2,1.049,1.05,4.236,3.849
1006.0,,,15283543.026,-0.675,1.182,2.699,4.199,1.049,1.051,4.237,3.855
1009.0,,,15326527.005,-0.675,1.186,2.699,4.199,1.049,1.046,4.237,3.834
1012.0,,,15369464.755,-0.675,1.2,2.699,4.199,1.049,1.048,4.237,3.843
1015.0,,,15412375.985,-0.675,1.196,2.699,4.199,1.045,1.045,4.221,3.829
1018.0,,,15455220.58,-0.675,1.179,2.699,4.199,1.043,1.043,4.216,3.824
1021.0,,,15498869.231,-0.675,1.196,2.699,4.199,1.064,1.054,4.297,3.861
1024.0,,,15542163.806,-0.675,1.188,2.699,4.2,1.049,1.046,4.24,3.827
1027.0,,,15585265.48,-0.675,1.18,2.699,4.199,1.043,1.042,4.218,3.811
1030.0,,,15628228.135,-0.675,1.182,2.699,4.2,1.039,1.037,4.201,3.793
1033.0,,,15671093.75,-0.675,1.178,2.699,4.199,1.037,1.035,4.194,3.787
1036.0,,,15713896.533,-0.675,1.193,2.699,4.199,1.034,1.032,4.182,3.773
1039.0,,,15756699.588,-0.675,1.18,2.699,4.199,1.036,1.036,4.19,3.79
1042.0,,,15799401.743,-0.675,1.184,2.699,4.199,1.032,1.031,4.175,3.771
1045.0,,,15842145.939,-0.675,1.182,2.699,4.2,1.035,1.034,4.184,3.785
1048.0,,,15879580.398,-0.675,1.185,2.699,4.2,1.032,1.029,4.174,3.763
1051.0,,,15922247.337,-0.675,1.184,2.699,4.199,1.031,1.031,4.168,3.773
1054.0,,,15964822.22,-0.675,1.183,2.699,4.2,1.027,1.026,4.155,3.749
1057.0,,,16007384.679,-0.675,1.184,2.699,4.2,1.027,1.027,4.152,3.757
1060.0,,,16049865.019,-0.675,1.192,2.699,4.199,1.023,1.021,4.139,3.731
1063.0,,,16092340.362,-0.675,1.21,2.699,4.2,1.026,1.026,4.151,3.753
1066.0,,,16134787.326,-0.675,1.187,2.699,4.2,1.022,1.021,4.135,3.73
1069.0,,,16177188.553,-0.675,1.204,2.699,4.2,1.019,1.018,4.124,3.721
1072.0,,,16215093.886,-0.675,0.675,2.699,4.198,0.794,0.805,3.174,2.905
1075.0,,,16258150.622,-0.675,1.187,2.699,4.199,1.033,1.03,4.18,3.768
1078.0,,,16300870.758,-0.675,1.179,2.699,4.199,1.031,1.029,4.165,3.767
1081.0,,,16343622.726,-0.675,1.185,2.699,4.2,1.028,1.027,4.157,3.759
1084.0,,,16380948.118,-0.675,1.173,2.699,4.2,1.033,1.025,4.175,3.748
1087.0,,,16423519.058,-0.675,1.176,2.699,4.2,1.021,1.022,4.128,3.734
1090.0,,,16460782.847,-0.675,1.184,2.699,4.2,1.029,1.024,4.16,3.745
1093.0,,,16484017.809,-0.675,1.182,2.699,4.2,1.037,1.022,4.191,3.74
1096.0,,,16526499.4,-0.675,1.192,2.699,4.2,1.02,1.02,4.126,3.73
1099.0,,,16568968.181,-0.675,1.181,2.699,4.2,1.017,1.017,4.114,3.716
1102.0,,,16611389.607,-0.675,1.193,2.699,4.2,1.019,1.015,4.124,3.708
1105.0,,,16653658.538,-0.675,1.183,2.699,4.2,1.015,1.014,4.109,3.705
1108.0,,,16695960.063,-0.675,1.185,2.699,4.2,1.012,1.012,4.095,3.695
1111.0,,,16738325.962,-0.675,1.177,2.699,4.2,1.015,1.015,4.106,3.711
1114.0,,,16780519.53,-0.675,1.185,2.699,4.199,1.01,1.009,4.089,3.682
1117.0,,,16822808.32,-0.675,1.181,2.699,4.2,1.01,1.014,4.084,3.705
1120.0,,,16864975.358,-0.675,1.191,2.699,4.2,1.007,1.006,4.074,3.672
1123.0,,,16907241.52,-0.675,1.184,2.699,4.199,1.009,1.009,4.083,3.684
1126.0,,,16949279.227,-0.675,1.193,2.699,4.199,1.006,1.005,4.071,3.669
1129.0,,,16991369.675,-0.675,1.185,2.699,4.199,1.006,1.005,4.072,3.666
1132.0,,,17033377.035,-0.675,1.193,2.699,4.199,1.0,0.998,4.048,3.639
1135.0,,,17075466.354,-0.675,1.192,2.699,4.2,1.003,1.001,4.061,3.655
1138.0,,,17117623.225,-0.675,1.191,2.699,4.2,1.002,0.999,4.059,3.643
1141.0,,,17159559.638,-0.675,1.218,2.699,4.199,0.997,0.996,4.039,3.632
1144.0,,,17202638.003,-0.675,1.186,2.699,4.2,1.019,1.011,4.124,3.694
1147.0,,,17244932.401,-0.675,1.193,2.699,4.199,1.01,1.01,4.089,3.689
1150.0,,,17287262.564,-0.675,1.184,2.699,4.2,1.007,1.007,4.075,3.673
1153.0,,,17329412.901,-0.675,1.189,2.699,4.2,1.003,1.004,4.059,3.665
1156.0,,,17371711.988,-0.675,1.185,2.699,4.199,1.006,1.005,4.071,3.668
1159.0,,,17408378.903,-0.675,1.198,2.699,4.199,1.007,0.997,4.077,3.639
1162.0,,,17450688.36,-0.675,1.183,2.699,4.199,1.002,1.001,4.056,3.651
1165.0,,,17492662.297,-0.675,1.197,2.699,4.199,0.994,0.993,4.024,3.621
1168.0,,,17534725.812,-0.675,1.191,2.699,4.2,0.996,0.993,4.031,3.62
1171.0,,,17576462.977,-0.675,1.192,2.699,4.2,0.988,0.987,4.001,3.596
1174.0,,,17618275.738,-0.675,1.21,2.699,4.2,0.986,0.987,3.995,3.595
1177.0,,,17659950.515,-0.675,1.197,2.699,4.2,0.983,0.984,3.981,3.584
1180.0,,,17701759.314,-0.675,1.197,2.699,4.2,0.987,0.984,3.995,3.584
1183.0,,,17743273.17,-0.675,1.188,2.699,4.2,0.981,0.981,3.974,3.575
1186.0,,,17785018.802,-0.675,1.182,2.699,4.199,0.985,0.983,3.987,3.584
1189.0,,,17826510.684,-0.675,1.19,2.699,4.199,0.981,0.98,3.973,3.569
1192.0,,,17868827.467,-0.675,1.163,2.699,4.2,0.962,0.998,3.918,3.65
1195.0,,,17911475.789,-0.675,1.187,2.699,4.2,1.022,1.024,4.129,3.751
1198.0,,,17953654.696,-0.675,1.183,2.699,4.2,1.004,1.002,4.061,3.657
1201.0,,,17995803.765,-0.675,1.174,2.699,4.2,1.008,1.018,4.072,3.727
1204.0,,,18038325.793,-0.675,1.167,2.699,4.2,1.026,1.028,4.139,3.771
1207.0,,,18081138.104,-0.675,1.164,2.699,4.2,1.035,1.035,4.172,3.798
1210.0,,,18123906.363,-0.675,1.179,2.699,4.2,1.04,1.04,4.191,3.817
1213.0,,,18166743.988,-0.675,1.162,2.699,4.2,1.042,1.044,4.199,3.834
1216.0,,,18209238.224,-0.675,1.179,2.699,4.2,1.01,1.011,4.079,3.699
1219.0,,,18238463.488,0.0,0.675,3.22,3.909,0.188,0.0,0.722,0.0
1222.0,,,18280032.91,-0.675,1.157,2.699,4.2,1.028,1.03,4.146,3.781
1225.0,,,18322490.674,-0.675,1.181,2.699,4.2,1.015,1.012,4.099,3.707
1228.0,,,18350755.295,-0.675,1.172,2.699,4.2,1.017,1.022,4.106,3.749
1231.0,,,18393457.104,-0.675,1.162,2.699,4.2,1.034,1.031,4.169,3.786
1234.0,,,18436041.953,-0.675,1.167,2.699,4.2,1.034,1.037,4.17,3.806
1237.0,,,18478948.689,-0.675,1.175,2.699,4.2,1.038,1.037,4.182,3.81
1240.0,,,18521690.94,-0.675,1.166,2.699,4.2,1.039,1.04,4.188,3.819
1243.0,,,18564196.504,-0.675,1.174,2.699,4.2,1.013,1.012,4.089,3.702
1246.0,,,18602017.661,-0.675,1.183,2.699,4.2,0.999,1.01,4.039,3.692
1249.0,,,18644053.961,-0.675,1.188,2.699,4.2,1.0,1.0,4.04,3.654
1252.0,,,18686133.417,-0.675,1.187,2.699,4.2,0.997,0.997,4.032,3.643
1255.0,,,18722754.499,-0.675,0.675,2.699,4.197,0.755,0.766,3.015,2.763
1258.0,,,18764726.823,-0.675,1.177,2.699,4.2,0.992,0.989,4.013,3.609
1261.0,,,18806778.464,-0.675,1.176,2.699,4.2,1.005,0.995,4.06,3.636
1264.0,,,18843329.472,-0.675,1.179,2.699,4.2,0.993,0.988,4.014,3.609
1267.0,,,18885177.131,-0.675,1.189,2.699,4.2,1.002,1.001,4.05,3.664
1270.0,,,18926787.818,-0.675,1.176,2.699,4.2,0.986,0.985,3.988,3.599
1273.0,,,18968633.808,-0.675,1.175,2.699,4.2,1.0,1.002,4.04,3.667
1276.0,,,19010826.537,-0.675,1.168,2.699,4.2,1.009,1.014,4.072,3.716
1279.0,,,19053336.691,-0.675,1.166,2.699,4.2,1.02,1.018,4.114,3.732
1282.0,,,19095606.168,-0.675,1.166,2.699,4.2,1.017,1.018,4.102,3.733
1285.0,,,19137976.976,-0.675,1.164,2.699,4.2,1.018,1.021,4.107,3.744
1288.0,,,19171377.558,-0.675,1.082,2.699,4.2,0.276,1.0,1.157,3.65
1291.0,,,19213403.75,-0.675,1.179,2.699,4.2,1.004,1.007,4.055,3.686
1294.0,,,19255131.235,-0.675,1.183,2.699,4.2,0.985,0.987,3.985,3.601
1297.0,,,19296990.71,-0.675,1.188,2.699,4.2,0.994,0.998,4.016,3.65
1300.0,,,19338603.916,-0.675,1.2,2.699,4.2,0.985,0.985,3.985,3.596
1303.0,,,19380090.45,-0.675,1.177,2.699,4.2,0.985,0.992,3.984,3.627
1306.0,,,19421722.333,-0.675,1.2,2.699,4.2,0.984,0.984,3.98,3.593
1309.0,,,19463179.325,-0.675,1.182,2.699,4.2,0.98,0.99,3.965,3.619
1312.0,,,19504928.673,-0.675,1.19,2.699,4.2,0.982,0.979,3.975,3.574
1315.0,,,19546380.433,-0.675,1.186,2.699,4.2,0.973,0.982,3.939,3.586
1318.0,,,19588406.201,-0.675,1.177,2.699,4.2,0.999,0.999,4.034,3.658
1321.0,,,19630391.299,-0.675,1.184,2.699,4.2,1.003,1.007,4.046,3.688
1324.0,,,19672337.202,-0.675,1.186,2.699,4.2,1.003,1.005,4.047,3.681
1327.0,,,19714279.298,-0.675,1.171,2.699,4.2,1.006,1.006,4.058,3.688
1330.0,,,19756021.239,-0.675,1.193,2.699,4.2,0.986,0.981,3.986,3.582
1333.0,,,19797456.713,-0.675,1.182,2.699,4.2,0.977,0.976,3.952,3.562
1336.0,,,19839000.369,-0.675,1.183,2.699,4.2,0.985,0.978,3.98,3.57
1339.0,,,19881490.58,-0.675,1.172,2.699,4.2,0.998,0.985,4.031,3.606
1342.0,,,19923501.112,-0.675,1.192,2.699,4.2,1.003,0.996,4.05,3.645
1345.0,,,19965090.374,-0.675,1.173,2.699,4.2,0.986,0.984,3.987,3.596
1348.0,,,20006707.943,-0.675,1.177,2.699,4.2,0.994,0.991,4.018,3.628
1351.0,,,20048066.707,-0.675,1.179,2.699,4.2,0.979,0.979,3.958,3.576
1354.0,,,20078613.233,-0.675,0.829,2.699,4.2,0.106,1.009,0.447,3.688
1357.0,,,20119808.933,-0.675,1.166,2.699,4.2,0.994,0.992,4.011,3.632
1360.0,,,20160931.749,-0.675,1.175,2.699,4.2,0.979,0.979,3.956,3.579
1363.0,,,20202134.877,-0.675,1.179,2.699,4.2,0.986,0.987,3.981,3.613
1366.0,,,20243243.924,-0.675,1.182,2.699,4.2,0.973,0.971,3.933,3.546
1369.0,,,20284429.616,-0.675,1.187,2.699,4.2,0.979,0.984,3.957,3.599
1372.0,,,20325316.624,-0.675,1.19,2.699,4.2,0.96,0.958,3.886,3.494
1375.0,,,20366226.595,-0.675,1.179,2.699,4.2,0.965,0.972,3.906,3.551
1378.0,,,20407109.949,-0.675,1.188,2.699,4.2,0.959,0.957,3.886,3.488
1381.0,,,20442476.403,-0.675,1.197,2.699,4.2,0.962,0.959,3.901,3.496
1384.0,,,20483703.574,-0.675,1.178,2.699,4.2,0.975,0.975,3.942,3.565
1387.0,,,20525036.546,-0.675,1.186,2.699,4.2,0.978,0.981,3.953,3.588
1390.0,,,20566426.135,-0.675,1.18,2.699,4.2,0.982,0.984,3.968,3.6
1393.0,,,20607885.979,-0.675,1.184,2.699,4.2,0.986,0.987,3.983,3.612
1396.0,,,20649179.255,-0.675,1.183,2.699,4.2,0.974,0.966,3.936,3.522
1399.0,,,20690103.757,-0.675,1.186,2.699,4.2,0.961,0.957,3.887,3.488
1402.0,,,20731138.449,-0.675,1.18,2.699,4.2,0.968,0.962,3.911,3.508
1405.0,,,20772969.766,-0.674,1.183,2.699,4.2,0.983,0.972,3.976,3.545
1408.0,,,20814605.975,-0.675,1.194,2.699,4.2,0.983,0.972,3.973,3.546
1411.0,,,20855760.713,-0.674,1.184,2.699,4.2,0.97,0.966,3.923,3.525
1414.0,,,20891673.219,-0.675,0.675,2.699,4.196,0.739,0.754,2.948,2.721
1417.0,,,20933072.314,-0.675,1.189,2.699,4.2,0.968,0.967,3.917,3.528
1420.0,,,20974144.281,-0.675,1.187,2.699,4.2,0.97,0.975,3.923,3.562
1423.0,,,21015553.338,-0.675,1.188,2.699,4.2,0.98,0.982,3.961,3.591
1426.0,,,21051793.954,-0.675,1.185,2.699,4.2,0.983,0.986,3.968,3.607
1429.0,,,21093303.646,-0.675,1.189,2.699,4.2,0.987,0.99,3.986,3.622
1432.0,,,21134944.433,-0.675,1.185,2.699,4.2,0.989,0.991,3.993,3.625
1435.0,,,21176197.499,-0.675,1.19,2.699,4.2,0.963,0.962,3.896,3.507
1438.0,,,21217084.993,-0.675,1.198,2.699,4.2,0.954,0.964,3.865,3.515
1441.0,,,21252758.879,-0.675,1.207,2.699,4.2,0.964,0.948,3.902,3.454
1444.0,,,21293407.404,-0.675,1.197,2.699,4.2,0.944,0.94,3.826,3.421
1447.0,,,21334166.519,-0.675,1.182,2.699,4.2,0.952,0.943,3.851,3.433
1450.0,,,21374560.654,-0.675,1.204,2.699,4.2,0.936,0.936,3.794,3.406
1453.0,,,21415126.047,-0.675,1.194,2.699,4.2,0.953,0.944,3.856,3.438
1456.0,,,21457164.427,-0.675,1.188,2.699,4.2,0.962,0.965,3.894,3.526
1459.0,,,21493064.163,-0.675,1.196,2.699,4.2,0.961,0.955,3.891,3.481
1462.0,,,21533791.822,-0.675,1.194,2.699,4.2,0.949,0.947,3.843,3.447
1465.0,,,21574755.991,-0.675,1.191,2.699,4.2,0.957,0.948,3.872,3.453
1468.0,,,21615418.447,-0.675,1.208,2.699,4.2,0.945,0.938,3.827,3.413
1471.0,,,21653400.436,-0.675,1.179,2.699,4.199,0.965,0.956,3.903,3.494
1474.0,,,21694308.144,-0.675,1.177,2.699,4.2,0.965,0.957,3.899,3.494
1477.0,,,21734711.771,-0.675,1.187,2.699,4.2,0.937,0.941,3.8,3.425
1480.0,,,21775285.682,-0.675,1.201,2.699,4.199,0.952,0.957,3.855,3.49
1483.0,,,21815901.225,-0.675,1.183,2.699,4.2,0.937,0.939,3.797,3.42
1486.0,,,21856575.935,-0.675,1.191,2.699,4.2,0.948,0.955,3.84,3.483
1489.0,,,21896869.017,-0.675,1.188,2.699,4.2,0.926,0.923,3.754,3.352
1492.0,,,21937035.925,-0.675,1.192,2.699,4.199,0.925,0.936,3.753,3.407
1495.0,,,21977640.722,-0.675,1.192,2.699,4.2,0.943,0.947,3.82,3.449
1498.0,,,22018492.178,-0.675,1.18,2.699,4.2,0.952,0.954,3.853,3.477
1501.0,,,22059447.431,-0.675,1.192,2.699,4.2,0.954,0.957,3.859,3.489
1504.0,,,22100491.759,-0.675,1.185,2.699,4.2,0.958,0.96,3.874,3.502
1507.0,,,22141160.959,-0.675,1.207,2.699,4.2,0.932,0.926,3.78,3.361
1510.0,,,22181398.095,-0.675,1.187,2.699,4.2,0.916,0.917,3.716,3.326
1513.0,,,22221871.732,-0.675,1.19,2.699,4.199,0.929,0.915,3.765,3.319
1516.0,,,22261824.801,-0.675,1.189,2.699,4.2,0.906,0.902,3.682,3.268
1519.0,,,22301956.858,-0.675,1.19,2.699,4.199,0.926,0.912,3.752,3.308
1522.0,,,22342728.899,-0.675,1.223,2.699,4.2,0.909,0.896,3.693,3.248
1525.0,,,22368720.735,-0.675,1.074,2.699,4.199,0.247,0.927,1.036,3.365
1528.0,,,22408764.317,-0.675,1.181,2.699,4.199,0.931,0.926,3.773,3.364
1531.0,,,22448591.522,-0.675,1.212,2.699,4.199,0.905,0.902,3.677,3.269
1534.0,,,22488504.513,-0.675,1.198,2.699,4.199,0.913,0.92,3.705,3.34
1537.0,,,22528191.829,-0.675,1.208,2.699,4.199,0.895,0.894,3.639,3.238
1540.0,,,22567869.584,-0.675,1.198,2.699,4.199,0.9,0.907,3.654,3.289
1543.0,,,22607393.512,-0.675,1.205,2.699,4.199,0.887,0.888,3.605,3.213
1546.0,,,22646678.154,-0.675,1.194,2.699,4.199,0.883,0.894,3.593,3.237
1549.0,,,22686439.74,-0.675,1.209,2.699,4.199,0.907,0.911,3.682,3.305
1552.0,,,22726459.355,-0.675,1.188,2.699,4.199,0.916,0.92,3.717,3.343
1555.0,,,22766606.338,-0.675,1.193,2.699,4.2,0.921,0.924,3.733,3.361
1558.0,,,22806805.711,-0.675,1.194,2.699,4.2,0.925,0.927,3.748,3.371
1561.0,,,22846793.727,-0.675,1.198,2.699,4.2,0.913,0.893,3.7,3.235
1564.0,,,22885975.575,-0.675,1.203,2.699,4.2,0.881,0.878,3.586,3.173
1567.0,,,22925461.512,-0.675,1.211,2.699,4.2,0.898,0.892,3.647,3.235
1570.0,,,22964377.61,-0.675,1.213,2.699,4.199,0.868,0.869,3.535,3.14
1573.0,,,23003364.591,-0.675,1.215,2.699,4.2,0.879,0.887,3.575,3.214
1576.0,,,23042947.547,-0.675,1.205,2.699,4.2,0.889,0.891,3.616,3.227
1579.0,,,23082253.159,-0.675,1.202,2.699,4.199,0.87,0.867,3.543,3.133
1582.0,,,23121151.919,-0.675,1.21,2.699,4.2,0.858,0.866,3.498,3.127
1585.0,,,23159894.421,-0.675,1.225,2.699,4.2,0.853,0.843,3.475,3.034
1588.0,,,23197849.848,-0.675,1.221,2.699,4.2,0.827,0.825,3.377,2.965
1591.0,,,23236442.103,-0.675,1.199,2.699,4.199,0.862,0.867,3.507,3.136
1594.0,,,23275360.998,-0.675,1.211,2.699,4.2,0.878,0.88,3.568,3.186
1597.0,,,23314476.229,-0.675,1.197,2.699,4.2,0.883,0.885,3.588,3.209
1600.0,,,23353645.069,-0.675,1.222,2.699,4.2,0.886,0.888,3.599,3.22
1603.0,,,23392882.154,-0.675,1.22,2.699,4.2,0.89,0.891,3.615,3.234
1606.0,,,23431375.913,-0.675,1.212,2.699,4.2,0.846,0.845,3.448,3.048
1609.0,,,23469773.16,-0.675,1.219,2.699,4.2,0.844,0.858,3.444,3.102
1612.0,,,23507893.675,-0.675,1.21,2.699,4.2,0.844,0.839,3.437,3.025
1615.0,,,23533246.794,0.0,0.0,3.305,3.411,0.0,0.0,0.0,0.0
1618.0,,,23572580.683,-0.675,1.205,2.699,4.2,0.86,0.864,3.502,3.124
1621.0,,,23610906.326,-0.675,1.217,2.699,4.199,0.84,0.84,3.423,3.028
1624.0,,,23642925.797,-0.675,1.224,2.699,4.2,0.847,0.834,3.455,3.006
1627.0,,,23681250.395,-0.675,1.213,2.699,4.2,0.851,0.836,3.466,3.014
1630.0,,,23718959.349,-0.675,1.208,2.699,4.2,0.834,0.827,3.4,2.979
1633.0,,,23756928.478,-0.675,1.234,2.699,4.2,0.848,0.854,3.451,3.086
1636.0,,,23795317.552,-0.675,1.214,2.699,4.2,0.861,0.864,3.502,3.127
1639.0,,,23827911.93,-0.675,0.675,2.699,4.196,0.604,0.628,2.42,2.244
1642.0,,,23867025.052,-0.675,1.211,2.699,4.2,0.872,0.873,3.543,3.161
1645.0,,,23905822.104,-0.675,1.213,2.699,4.2,0.872,0.874,3.544,3.164
1648.0,,,23944294.855,-0.675,1.214,2.699,4.2,0.846,0.835,3.443,3.007
1651.0,,,23981922.456,-0.675,1.218,2.699,4.2,0.825,0.821,3.363,2.956
1654.0,,,24019859.332,-0.675,1.205,2.699,4.2,0.849,0.835,3.454,3.011
1657.0,,,24057226.31,-0.675,1.221,2.699,4.2,0.815,0.812,3.325,2.922
1660.0,,,24094612.875,-0.675,1.207,2.699,4.2,0.827,0.835,3.371,3.014
1663.0,,,24125363.088,-0.675,0.675,2.699,4.198,0.529,0.555,2.129,1.966
1666.0,,,24163451.399,-0.675,1.221,2.699,4.2,0.748,0.774,3.083,2.787
1669.0,,,24200690.249,-0.675,1.196,2.699,4.2,0.81,0.812,3.304,2.923
1672.0,,,24237148.299,-0.675,1.212,2.699,4.2,0.776,0.772,3.175,2.765
1675.0,,,24273373.606,-0.675,1.241,2.699,4.2,0.772,0.791,3.158,2.84
1678.0,,,24309525.899,-0.675,1.221,2.699,4.2,0.762,0.751,3.12,2.682
1681.0,,,24344798.04,-0.675,1.205,2.699,4.2,0.744,0.739,3.05,2.637
1684.0,,,24380633.667,-0.675,1.213,2.699,4.2,0.778,0.763,3.177,2.731
1687.0,,,24415725.381,-0.675,1.214,2.699,4.2,0.742,0.739,3.041,2.639
1690.0,,,24450876.229,-0.675,1.205,2.699,4.2,0.747,0.759,3.06,2.718
1693.0,,,24486750.779,-0.675,1.22,2.699,4.2,0.773,0.776,3.161,2.786
1696.0,,,24522984.37,-0.674,1.237,2.699,4.2,0.784,0.787,3.201,2.829
1699.0,,,24559392.647,-0.674,1.203,2.699,4.2,0.793,0.792,3.236,2.85
1702.0,,,24590203.773,-0.675,1.218,2.699,4.2,0.814,0.795,3.321,2.861
1705.0,,,24626897.024,-0.675,1.212,2.699,4.2,0.798,0.8,3.255,2.881
1708.0,,,24662284.457,-0.675,1.245,2.699,4.2,0.737,0.731,3.017,2.608
1711.0,,,24696920.446,-0.675,1.215,2.699,4.2,0.726,0.727,2.976,2.594
1714.0,,,24731169.087,-0.674,1.226,2.699,4.2,0.714,0.71,2.929,2.528
1717.0,,,24766152.016,-0.675,1.222,2.699,4.199,0.716,0.693,2.935,2.466
1720.0,,,24799693.863,-0.674,1.225,2.699,4.2,0.69,0.685,2.835,2.434
1723.0,,,24832953.888,-0.674,1.235,2.699,4.2,0.685,0.685,2.815,2.436
1726.0,,,24866349.527,-0.675,1.229,2.699,4.2,0.693,0.69,2.845,2.453
1729.0,,,24899568.745,-0.675,1.211,2.699,4.2,0.684,0.678,2.81,2.41
1732.0,,,24932550.802,-0.674,1.204,2.699,4.2,0.678,0.677,2.788,2.405
1735.0,,,24965431.52,-0.675,1.253,2.699,4.2,0.676,0.672,2.779,2.385
1738.0,,,24998115.7,-0.674,1.21,2.699,4.2,0.665,0.665,2.735,2.359
1741.0,,,25024886.137,-0.674,1.225,2.699,4.199,0.668,0.659,2.748,2.338
1744.0,,,25051243.077,-0.675,1.229,2.699,4.2,0.675,0.656,2.781,2.327
1747.0,,,25083638.066,-0.674,1.205,2.699,4.2,0.654,0.651,2.69,2.306
1750.0,,,25115703.185,-0.674,1.248,2.699,4.2,0.646,0.641,2.658,2.268
1753.0,,,25147476.189,-0.675,1.209,2.699,4.2,0.636,0.633,2.621,2.236
1756.0,,,25179026.544,-0.674,1.197,2.699,4.2,0.631,0.627,2.599,2.216
1759.0,,,25210506.311,-0.675,1.228,2.699,4.199,0.626,0.626,2.578,2.211
1762.0,,,25241920.285,-0.674,1.262,2.699,4.2,0.624,0.625,2.573,2.206
1765.0,,,25273380.773,-0.675,1.239,2.699,4.2,0.623,0.621,2.566,2.19
1768.0,,,25305164.909,-0.675,1.204,2.699,4.2,0.607,0.587,2.503,2.072
1771.0,,,25329576.78,-0.675,1.212,2.699,4.2,0.594,0.584,2.451,2.062
1774.0,,,25359208.897,-0.675,1.206,2.699,4.2,0.578,0.577,2.387,2.035
1777.0,,,25388647.923,-0.675,1.214,2.699,4.2,0.575,0.567,2.375,1.994
1780.0,,,25417944.645,-0.675,1.2,2.699,4.2,0.57,0.567,2.355,1.997
1783.0,,,25447085.179,-0.675,1.222,2.699,4.2,0.563,0.568,2.327,1.999
1786.0,,,25476244.687,-0.675,1.242,2.699,4.2,0.56,0.557,2.315,1.957
1789.0,,,25505206.041,-0.675,1.211,2.699,4.2,0.559,0.558,2.309,1.959
1792.0,,,25534040.76,-0.675,1.219,2.699,4.2,0.556,0.556,2.299,1.953
1795.0,,,25563482.579,-0.675,1.215,2.699,4.2,0.577,0.569,2.378,2.004
1798.0,,,25592921.199,-0.675,1.212,2.699,4.2,0.578,0.578,2.383,2.038
1801.0,,,25622439.357,-0.675,1.255,2.699,4.2,0.579,0.584,2.387,2.061
1804.0,,,25652100.937,-0.675,1.256,2.699,4.2,0.583,0.582,2.405,2.053
1807.0,,,25681569.195,-0.675,1.213,2.699,4.2,0.574,0.574,2.369,2.021
1810.0,,,25711191.015,-0.675,1.251,2.699,4.2,0.585,0.591,2.411,2.088
1813.0,,,25740998.164,-0.675,1.263,2.699,4.2,0.585,0.579,2.412,2.043
1815.0,,,25760314.152,-0.675,1.213,2.699,4.2,0.559,0.555,2.308,1.95