File: Li-ion_Batteries/CALCE_CX2-33_prism_LCO_25C_0-100_0.5-0.5C_d_cycle_data.csv
Cycle_Index,Start_Time,End_Time,Test_Time (s),Min_Current (A),Max_Current (A),Min_Voltage (V),Max_Voltage (V),Charge_Capacity (Ah),Discharge_Capacity (Ah),Charge_Energy (Wh),Discharge_Energy (Wh)
1.0,,,12923.434,-0.674,1.124,2.699,4.2,0.604,1.292,2.5,4.758
4.0,,,62601.426,-0.674,1.13,2.699,4.2,1.293,1.29,5.189,4.757
7.0,,,112147.916,-0.674,1.139,2.699,4.2,1.289,1.291,5.175,4.767
10.0,,,161505.502,-0.674,1.13,2.699,4.2,1.289,1.291,5.166,4.77
13.0,,,210770.978,-0.674,1.125,2.699,4.2,1.287,1.289,5.159,4.766
16.0,,,259991.38,-0.674,1.131,2.699,4.2,1.286,1.288,5.157,4.761
19.0,,,309119.632,-0.674,1.134,2.699,4.2,1.285,1.283,5.153,4.742
22.0,,,353764.387,-0.674,1.133,3.165,4.2,1.275,0.421,5.122,1.642
25.0,,,398252.295,-0.674,1.133,2.699,4.2,1.282,1.288,5.142,4.772
28.0,,,447271.082,-0.674,1.135,2.699,4.2,1.28,1.282,5.134,4.743
31.0,,,496230.852,-0.674,1.128,2.699,4.2,1.286,1.288,5.146,4.775
34.0,,,545039.359,-0.674,1.127,2.699,4.2,1.275,1.277,5.116,4.72
37.0,,,593824.961,-0.674,1.122,2.699,4.2,1.281,1.28,5.128,4.736
40.0,,,642711.806,-0.674,1.14,2.699,4.2,1.271,1.271,5.099,4.692
43.0,,,691389.234,-0.674,1.121,2.699,4.2,1.28,1.284,5.122,4.766
46.0,,,739977.152,-0.674,1.113,2.699,4.2,1.284,1.288,5.135,4.783
49.0,,,788526.565,-0.674,1.113,2.699,4.2,1.286,1.288,5.141,4.788
52.0,,,837073.368,-0.674,1.11,2.699,4.2,1.286,1.289,5.139,4.792
55.0,,,885633.998,-0.674,1.124,2.699,4.2,1.271,1.271,5.094,4.701
58.0,,,934158.282,-0.674,1.115,2.699,4.2,1.28,1.283,5.118,4.763
61.0,,,982660.184,-0.674,1.127,2.699,4.2,1.267,1.268,5.08,4.69
64.0,,,1031180.815,-0.674,1.114,2.699,4.2,1.273,1.266,5.091,4.68
67.0,,,1079557.351,-0.674,1.126,2.699,4.2,1.265,1.265,5.074,4.673
70.0,,,1127993.086,-0.674,1.121,2.699,4.2,1.265,1.262,5.074,4.665
73.0,,,1176629.238,-0.674,1.135,2.699,4.2,1.255,1.277,5.054,4.717
76.0,,,1225671.847,-0.674,1.119,2.699,4.2,1.284,1.286,5.137,4.768
79.0,,,1274364.213,-0.674,1.118,2.699,4.2,1.285,1.285,5.137,4.771
82.0,,,1322957.767,-0.674,1.118,2.699,4.2,1.284,1.284,5.131,4.768
85.0,,,1371477.952,-0.674,1.124,2.699,4.2,1.283,1.284,5.127,4.772
88.0,,,1419887.39,-0.674,1.127,2.699,4.2,1.267,1.268,5.079,4.695
91.0,,,1468382.922,-0.674,1.117,2.699,4.2,1.27,1.275,5.083,4.732
94.0,,,1516700.86,-0.674,1.128,2.699,4.2,1.259,1.262,5.05,4.667
97.0,,,1560668.663,-0.674,0.675,2.699,4.197,1.064,1.071,4.219,3.927
100.0,,,1609040.903,-0.674,1.122,2.699,4.2,1.261,1.26,5.053,4.664
103.0,,,1657244.871,-0.674,1.113,2.699,4.2,1.27,1.264,5.08,4.684
106.0,,,1705461.433,-0.674,1.121,2.699,4.2,1.257,1.257,5.04,4.649
109.0,,,1753610.398,-0.674,1.119,2.699,4.2,1.263,1.256,5.055,4.649
112.0,,,1801677.675,-0.674,1.112,2.699,4.2,1.269,1.271,5.07,4.723
115.0,,,1849720.403,-0.674,1.113,2.699,4.2,1.27,1.272,5.072,4.729
118.0,,,1897749.041,-0.674,1.112,2.699,4.2,1.272,1.273,5.081,4.736
121.0,,,1945751.354,-0.674,1.114,2.699,4.2,1.272,1.274,5.079,4.739
124.0,,,1994409.557,-0.674,1.133,2.699,4.2,1.278,1.284,5.123,4.764
127.0,,,2043064.898,-0.674,1.141,2.699,4.2,1.268,1.27,5.08,4.703
130.0,,,2091485.129,-0.674,1.123,2.699,4.2,1.27,1.275,5.078,4.731
133.0,,,2139604.92,-0.674,1.141,2.699,4.2,1.256,1.256,5.034,4.644
136.0,,,2187657.822,-0.674,1.118,2.699,4.2,1.264,1.262,5.055,4.678
139.0,,,2235752.353,-0.674,1.141,2.699,4.2,1.252,1.253,5.02,4.636
142.0,,,2283840.1,-0.674,1.118,2.699,4.2,1.259,1.249,5.038,4.62
145.0,,,2318355.03,0.0,0.675,3.155,3.946,0.442,0.0,1.705,0.0
148.0,,,2364162.559,-0.674,1.124,2.699,4.2,1.253,1.256,5.018,4.658
151.0,,,2412132.884,-0.674,1.128,2.699,4.2,1.239,1.24,4.976,4.576
154.0,,,2438564.093,-0.674,0.675,2.699,4.199,1.03,1.038,4.089,3.796
157.0,,,2486455.467,-0.674,1.125,2.699,4.2,1.243,1.244,4.988,4.6
160.0,,,2534243.224,-0.674,1.118,2.699,4.2,1.247,1.253,4.998,4.647
163.0,,,2582000.035,-0.674,1.12,2.699,4.2,1.24,1.243,4.973,4.604
166.0,,,2629684.67,-0.674,1.124,2.699,4.2,1.247,1.249,4.994,4.635
169.0,,,2677322.137,-0.674,1.122,2.699,4.2,1.238,1.24,4.964,4.59
172.0,,,2724855.107,-0.674,1.111,2.699,4.2,1.246,1.243,4.989,4.606
175.0,,,2772399.352,-0.674,1.123,2.699,4.2,1.237,1.239,4.957,4.59
178.0,,,2819969.81,-0.674,1.11,2.699,4.2,1.245,1.247,4.984,4.627
181.0,,,2867469.114,-0.674,1.106,2.699,4.2,1.248,1.25,4.992,4.641
184.0,,,2914936.163,-0.674,1.103,2.699,4.2,1.248,1.25,4.99,4.643
187.0,,,2962385.581,-0.674,1.111,2.699,4.2,1.247,1.25,4.987,4.645
190.0,,,3009832.114,-0.674,1.119,2.699,4.2,1.235,1.237,4.949,4.582
193.0,,,3057175.822,-0.674,1.11,2.699,4.2,1.235,1.243,4.949,4.612
196.0,,,3104525.893,-0.674,1.119,2.699,4.2,1.233,1.236,4.94,4.584
199.0,,,3151886.926,-0.674,1.107,2.699,4.2,1.239,1.243,4.959,4.614
202.0,,,3199141.437,-0.674,1.114,2.699,4.2,1.235,1.235,4.947,4.58
205.0,,,3247173.058,-0.674,1.12,2.699,4.2,1.248,1.254,5.003,4.65
208.0,,,3294905.908,-0.674,1.118,2.699,4.2,1.241,1.242,4.974,4.601
211.0,,,3342490.137,-0.674,1.122,2.699,4.2,1.245,1.248,4.981,4.632
214.0,,,3389971.505,-0.674,1.107,2.699,4.2,1.247,1.249,4.989,4.637
217.0,,,3437386.075,-0.674,1.106,2.699,4.2,1.247,1.248,4.985,4.636
220.0,,,3484761.002,-0.674,1.109,2.699,4.2,1.246,1.247,4.982,4.635
223.0,,,3531973.214,-0.674,1.104,2.699,4.2,1.243,1.238,4.97,4.592
226.0,,,3579205.128,-0.674,1.114,2.699,4.2,1.232,1.232,4.933,4.565
229.0,,,3626416.317,-0.674,1.123,2.699,4.2,1.235,1.23,4.942,4.556
232.0,,,3673624.041,-0.674,1.129,2.699,4.2,1.228,1.235,4.919,4.58
235.0,,,3716521.779,-0.674,1.115,2.699,4.2,1.234,1.229,4.94,4.553
238.0,,,3759170.646,-0.674,0.675,2.699,4.199,1.018,1.029,4.04,3.77
241.0,,,3806249.615,-0.674,1.113,2.699,4.2,1.224,1.226,4.904,4.543
244.0,,,3853260.147,-0.674,1.117,2.699,4.2,1.216,1.229,4.882,4.56
247.0,,,3900290.864,-0.674,1.126,2.699,4.2,1.21,1.212,4.86,4.481
250.0,,,3947286.779,-0.674,1.117,2.699,4.2,1.22,1.225,4.891,4.544
253.0,,,3994736.136,-0.674,1.123,2.699,4.2,1.208,1.228,4.878,4.535
256.0,,,4042437.78,-0.674,1.119,2.699,4.2,1.246,1.233,4.988,4.558
259.0,,,4089846.862,-0.674,1.127,2.699,4.2,1.221,1.218,4.904,4.496
262.0,,,4137113.709,-0.674,1.127,2.699,4.2,1.227,1.215,4.92,4.484
265.0,,,4168585.527,-0.674,1.077,2.699,4.2,0.269,1.212,1.129,4.472
268.0,,,4215621.454,-0.674,1.119,2.699,4.2,1.215,1.222,4.874,4.524
271.0,,,4258130.988,-0.674,1.143,2.699,4.2,1.204,1.204,4.839,4.444
274.0,,,4305102.643,-0.674,1.118,2.699,4.2,1.214,1.217,4.868,4.506
277.0,,,4351836.736,-0.674,1.135,2.699,4.2,1.198,1.199,4.817,4.422
280.0,,,4398469.262,-0.674,1.121,2.699,4.2,1.208,1.208,4.846,4.474
283.0,,,4445175.983,-0.674,1.126,2.699,4.2,1.199,1.201,4.817,4.439
286.0,,,4487134.635,-0.674,1.122,2.699,4.2,1.211,1.207,4.856,4.468
289.0,,,4533742.83,-0.674,1.122,2.699,4.2,1.201,1.2,4.822,4.437
292.0,,,4580409.175,-0.674,1.124,2.699,4.2,1.21,1.211,4.849,4.487
295.0,,,4627031.085,-0.674,1.116,2.699,4.2,1.21,1.213,4.849,4.499
298.0,,,4673633.305,-0.674,1.111,2.699,4.2,1.213,1.214,4.858,4.501
301.0,,,4715817.145,-0.674,1.11,2.699,4.2,1.212,1.212,4.855,4.492
304.0,,,4762323.559,-0.674,1.126,2.699,4.2,1.197,1.197,4.803,4.424
307.0,,,4808884.446,-0.674,1.144,2.699,4.2,1.195,1.203,4.803,4.456
310.0,,,4855327.293,-0.674,1.121,2.699,4.2,1.192,1.194,4.789,4.411
313.0,,,4901676.303,-0.674,1.117,2.699,4.2,1.192,1.203,4.784,4.454
316.0,,,4948916.603,-0.674,1.134,2.699,4.2,1.21,1.208,4.865,4.452
319.0,,,4996084.116,-0.674,1.138,2.699,4.2,1.209,1.206,4.86,4.45
322.0,,,5043051.093,-0.674,1.139,2.699,4.2,1.203,1.212,4.834,4.483
325.0,,,5089898.676,-0.674,1.126,2.699,4.2,1.2,1.201,4.821,4.436
328.0,,,5136580.777,-0.674,1.119,2.699,4.2,1.203,1.208,4.828,4.47
331.0,,,5183139.672,-0.674,1.133,2.699,4.2,1.194,1.195,4.796,4.412
334.0,,,5229724.567,-0.674,1.13,2.699,4.2,1.202,1.205,4.822,4.463
337.0,,,5276201.48,-0.674,1.121,2.699,4.2,1.195,1.198,4.796,4.429
340.0,,,5322624.966,-0.674,1.118,2.699,4.2,1.204,1.206,4.826,4.471
343.0,,,5369107.738,-0.674,1.111,2.699,4.2,1.207,1.208,4.837,4.479
346.0,,,5415575.398,-0.674,1.117,2.699,4.2,1.207,1.209,4.833,4.485
349.0,,,5461991.233,-0.674,1.108,2.699,4.2,1.206,1.21,4.829,4.489
352.0,,,5504056.173,-0.674,1.116,2.699,4.2,1.204,1.201,4.822,4.449
355.0,,,5550409.01,-0.674,1.125,2.699,4.2,1.196,1.196,4.795,4.427
358.0,,,5596687.412,-0.674,1.128,2.699,4.2,1.2,1.196,4.809,4.426
361.0,,,5638468.636,-0.674,1.118,2.699,4.2,1.198,1.196,4.804,4.426
364.0,,,5680215.832,-0.674,0.675,2.699,4.199,0.99,0.995,3.93,3.638
367.0,,,5727817.537,-0.674,1.141,2.699,4.2,1.214,1.223,4.878,4.53
370.0,,,5770268.222,-0.674,1.134,2.699,4.2,1.205,1.198,4.841,4.421
373.0,,,5816891.359,-0.674,1.139,2.699,4.2,1.193,1.204,4.797,4.451
376.0,,,5863484.965,-0.674,1.136,2.699,4.2,1.187,1.184,4.773,4.364
379.0,,,5909930.361,-0.674,1.141,2.699,4.2,1.19,1.195,4.781,4.419
382.0,,,5956166.83,-0.674,1.148,2.699,4.2,1.177,1.175,4.735,4.328
385.0,,,5997504.237,-0.674,1.137,2.699,4.2,1.171,1.168,4.714,4.299
388.0,,,6043672.485,-0.674,1.148,2.699,4.2,1.171,1.174,4.715,4.331
391.0,,,6089701.725,-0.674,1.13,2.699,4.2,1.174,1.176,4.718,4.343
394.0,,,6135723.55,-0.674,1.141,2.699,4.2,1.176,1.178,4.725,4.35
397.0,,,6181694.781,-0.674,1.13,2.699,4.2,1.175,1.175,4.723,4.34
400.0,,,6227641.787,-0.674,1.132,2.699,4.2,1.174,1.175,4.719,4.342
403.0,,,6273538.855,-0.674,1.125,2.699,4.2,1.173,1.173,4.716,4.334
406.0,,,6314800.11,-0.674,1.128,2.699,4.2,1.178,1.177,4.73,4.351
409.0,,,6360695.434,-0.674,1.128,2.699,4.2,1.171,1.171,4.704,4.327
412.0,,,6406543.272,-0.674,1.139,2.699,4.2,1.176,1.174,4.722,4.339
415.0,,,6452466.701,-0.674,1.116,2.699,4.2,1.167,1.182,4.697,4.368
418.0,,,6498597.694,-0.674,1.132,2.699,4.2,1.174,1.172,4.72,4.324
421.0,,,6539852.103,-0.674,1.138,2.699,4.2,1.173,1.17,4.715,4.321
424.0,,,6585695.56,-0.674,1.144,2.699,4.2,1.162,1.16,4.676,4.275
427.0,,,6626616.284,-0.674,1.153,2.699,4.2,1.162,1.16,4.675,4.277
430.0,,,6672320.088,-0.674,1.139,2.699,4.2,1.153,1.154,4.644,4.251
433.0,,,6717939.29,-0.674,1.139,2.699,4.2,1.152,1.153,4.637,4.249
436.0,,,6763477.774,-0.674,1.152,2.699,4.2,1.151,1.151,4.634,4.242
439.0,,,6808968.289,-0.674,1.14,2.699,4.2,1.15,1.15,4.631,4.237
442.0,,,6854423.619,-0.674,1.135,2.699,4.2,1.146,1.15,4.616,4.236
445.0,,,6899875.751,-0.674,1.135,2.699,4.2,1.152,1.151,4.636,4.245
448.0,,,6945234.831,-0.674,1.137,2.699,4.2,1.145,1.147,4.61,4.225
451.0,,,6990588.046,-0.674,1.15,2.699,4.2,1.146,1.145,4.613,4.217
454.0,,,7035907.749,-0.674,1.138,2.699,4.2,1.141,1.143,4.598,4.213
457.0,,,7081167.074,-0.674,1.145,2.699,4.2,1.141,1.138,4.595,4.191
460.0,,,7126347.857,-0.674,1.138,2.699,4.2,1.134,1.136,4.572,4.183
463.0,,,7171443.838,-0.674,1.14,2.699,4.2,1.133,1.132,4.567,4.166
466.0,,,7217345.647,-0.674,1.145,2.699,4.2,1.161,1.151,4.678,4.235
469.0,,,7263092.229,-0.674,1.147,2.699,4.2,1.147,1.146,4.624,4.215
472.0,,,7308660.608,-0.674,1.161,2.699,4.2,1.147,1.143,4.621,4.207
475.0,,,7354092.108,-0.674,1.145,2.699,4.2,1.143,1.143,4.606,4.205
478.0,,,7399456.527,-0.674,1.142,2.699,4.2,1.142,1.141,4.6,4.2
481.0,,,7444727.61,-0.674,1.141,2.699,4.2,1.134,1.135,4.573,4.174
484.0,,,7488598.894,-0.674,1.158,2.699,4.2,0.968,1.137,3.947,4.186
487.0,,,7534182.502,-0.674,1.151,2.699,4.2,1.141,1.139,4.602,4.187
490.0,,,7579580.3,-0.674,1.148,2.699,4.2,1.142,1.139,4.604,4.193
493.0,,,7624814.04,-0.674,1.156,2.699,4.2,1.134,1.133,4.575,4.165
496.0,,,7664985.439,-0.674,0.675,2.699,4.199,0.906,0.915,3.611,3.324
499.0,,,7710181.074,-0.674,1.146,2.699,4.2,1.126,1.126,4.544,4.137
502.0,,,7755246.644,-0.674,1.164,2.699,4.2,1.125,1.125,4.537,4.137
505.0,,,7800222.948,-0.674,1.167,2.699,4.2,1.121,1.121,4.523,4.117
508.0,,,7845170.05,-0.674,1.152,2.699,4.2,1.124,1.124,4.532,4.133
511.0,,,7890027.871,-0.674,1.147,2.699,4.2,1.119,1.118,4.516,4.107
514.0,,,7934829.3,-0.674,1.15,2.699,4.2,1.115,1.115,4.502,4.097
517.0,,,7979569.764,-0.674,1.151,2.699,4.2,1.115,1.113,4.499,4.088
520.0,,,8024272.213,-0.674,1.149,2.699,4.2,1.114,1.115,4.493,4.097
523.0,,,8068923.579,-0.674,1.148,2.699,4.2,1.112,1.112,4.486,4.083
526.0,,,8113537.458,-0.674,1.148,2.699,4.2,1.118,1.115,4.506,4.102
529.0,,,8158136.407,-0.674,1.141,2.699,4.2,1.109,1.11,4.474,4.079
532.0,,,8202695.29,-0.674,1.138,2.699,4.2,1.111,1.109,4.482,4.074
535.0,,,8247895.354,-0.674,1.146,2.699,4.2,1.128,1.122,4.552,4.122
538.0,,,8292999.105,-0.674,1.154,2.699,4.2,1.122,1.12,4.526,4.115
541.0,,,8337942.647,-0.674,1.147,2.699,4.2,1.117,1.115,4.506,4.093
544.0,,,8382746.195,-0.674,1.15,2.699,4.2,1.112,1.11,4.489,4.076
547.0,,,8427524.087,-0.674,1.163,2.699,4.2,1.11,1.108,4.483,4.067
550.0,,,8472153.399,-0.674,1.159,2.699,4.2,1.106,1.105,4.467,4.057
553.0,,,8516725.464,-0.674,1.147,2.699,4.2,1.108,1.108,4.471,4.068
556.0,,,8561276.813,-0.674,1.141,2.699,4.2,1.107,1.11,4.468,4.083
559.0,,,8605743.859,-0.674,1.151,2.699,4.2,1.107,1.106,4.466,4.065
562.0,,,8650170.578,-0.674,1.153,2.699,4.2,1.103,1.104,4.453,4.058
565.0,,,8689338.987,-0.674,0.674,2.699,4.197,0.862,0.872,3.441,3.157
568.0,,,8733801.261,-0.674,1.145,2.699,4.2,1.098,1.099,4.436,4.036
571.0,,,8778064.264,-0.674,1.149,2.699,4.2,1.098,1.099,4.432,4.034
574.0,,,8822310.478,-0.674,1.141,2.699,4.2,1.1,1.102,4.438,4.051
577.0,,,8866546.75,-0.674,1.142,2.699,4.2,1.1,1.099,4.437,4.039
580.0,,,8910725.228,-0.674,1.161,2.699,4.2,1.098,1.102,4.431,4.054
583.0,,,8954925.41,-0.674,1.158,2.699,4.2,1.099,1.097,4.434,4.032
586.0,,,9000103.61,-0.674,1.17,2.699,4.2,1.111,1.107,4.484,4.064
589.0,,,9044759.114,-0.674,1.159,2.699,4.2,1.105,1.105,4.463,4.057
592.0,,,9089283.022,-0.674,1.17,2.699,4.2,1.098,1.097,4.434,4.022
595.0,,,9128572.822,-0.674,1.159,2.699,4.2,1.098,1.099,4.435,4.032
598.0,,,9172942.587,-0.674,1.157,2.699,4.2,1.099,1.097,4.435,4.027
601.0,,,9217255.836,-0.674,1.154,2.699,4.2,1.094,1.097,4.419,4.029
604.0,,,9242257.412,-0.674,0.421,2.699,4.2,0.046,1.116,0.194,4.097
607.0,,,9286198.624,-0.674,1.175,2.699,4.2,1.088,1.088,4.396,3.99
610.0,,,9330183.898,-0.674,1.158,2.699,4.2,1.087,1.089,4.392,3.996
613.0,,,9374092.497,-0.674,1.161,2.699,4.2,1.083,1.083,4.378,3.971
616.0,,,9418007.202,-0.674,1.164,2.699,4.2,1.086,1.085,4.384,3.982
619.0,,,9461896.981,-0.674,1.146,2.699,4.2,1.085,1.084,4.383,3.977
622.0,,,9505795.656,-0.674,1.148,2.699,4.2,1.088,1.085,4.391,3.982
625.0,,,9549574.303,-0.674,1.154,2.699,4.2,1.078,1.077,4.358,3.946
628.0,,,9593338.15,-0.674,1.16,2.699,4.2,1.079,1.078,4.358,3.955
631.0,,,9637047.328,-0.674,1.175,2.699,4.2,1.07,1.072,4.328,3.928
634.0,,,9680757.703,-0.674,1.145,2.699,4.2,1.078,1.076,4.355,3.946
637.0,,,9724369.741,-0.674,1.173,2.699,4.2,1.069,1.07,4.323,3.92
640.0,,,9767932.89,-0.674,1.158,2.699,4.2,1.068,1.068,4.318,3.914
643.0,,,9811475.385,-0.674,1.162,2.699,4.2,1.065,1.067,4.308,3.906
646.0,,,9855035.694,-0.674,1.156,2.699,4.2,1.072,1.07,4.329,3.923
649.0,,,9898528.107,-0.674,1.149,2.699,4.2,1.067,1.068,4.314,3.914
652.0,,,9942023.521,-0.674,1.158,2.699,4.2,1.07,1.069,4.324,3.918
655.0,,,9986283.945,-0.674,1.157,2.699,4.2,1.09,1.082,4.404,3.969
658.0,,,10030296.27,-0.674,1.17,2.699,4.2,1.076,1.074,4.351,3.931
661.0,,,10074205.792,-0.674,1.176,2.699,4.2,1.078,1.077,4.353,3.947
664.0,,,10117927.627,-0.674,1.162,2.699,4.2,1.067,1.067,4.317,3.906
667.0,,,10161622.764,-0.674,1.161,2.699,4.2,1.074,1.074,4.338,3.936
670.0,,,10205311.546,-0.674,1.159,2.699,4.2,1.072,1.072,4.334,3.928
673.0,,,10248998.678,-0.674,1.16,2.699,4.2,1.074,1.071,4.337,3.928
676.0,,,10292606.776,-0.674,1.154,2.699,4.2,1.068,1.068,4.317,3.913
679.0,,,10336156.845,-0.674,1.156,2.699,4.2,1.07,1.068,4.322,3.914
682.0,,,10379617.435,-0.674,1.168,2.699,4.2,1.06,1.058,4.286,3.872
685.0,,,10417836.895,-0.674,1.155,2.699,4.2,1.064,1.061,4.301,3.888
688.0,,,10461241.691,-0.674,1.163,2.699,4.2,1.057,1.059,4.275,3.876
691.0,,,10504591.021,-0.674,1.16,2.699,4.2,1.058,1.059,4.277,3.878
694.0,,,10547842.167,-0.674,1.175,2.699,4.2,1.051,1.053,4.252,3.85
697.0,,,10591118.127,-0.674,1.145,2.699,4.2,1.056,1.057,4.269,3.872
700.0,,,10634324.677,-0.674,1.176,2.699,4.2,1.05,1.05,4.25,3.842
703.0,,,10677560.918,-0.674,1.154,2.699,4.2,1.059,1.056,4.28,3.868
706.0,,,10721842.562,-0.674,1.159,2.699,4.2,1.077,1.072,4.352,3.928
709.0,,,10765482.597,-0.674,1.163,2.699,4.2,1.069,1.074,4.32,3.938
712.0,,,10809092.89,-0.674,1.162,2.699,4.2,1.069,1.071,4.317,3.924
715.0,,,10852560.143,-0.674,1.177,2.699,4.2,1.061,1.063,4.29,3.895
718.0,,,10895958.404,-0.674,1.174,2.699,4.2,1.058,1.056,4.278,3.863
721.0,,,10939260.87,-0.674,1.181,2.699,4.2,1.053,1.057,4.259,3.869
724.0,,,10982601.064,-0.674,1.162,2.699,4.2,1.056,1.053,4.272,3.853
727.0,,,11025780.668,-0.674,1.177,2.699,4.2,1.05,1.048,4.247,3.834
730.0,,,11068896.485,-0.674,1.163,2.699,4.2,1.05,1.044,4.246,3.819
733.0,,,11111905.068,-0.674,1.19,2.699,4.2,1.042,1.041,4.217,3.804
736.0,,,11154928.537,-0.674,1.158,2.699,4.2,1.045,1.044,4.227,3.817
739.0,,,11197847.751,-0.674,1.169,2.699,4.2,1.038,1.043,4.202,3.814
742.0,,,11240801.091,-0.674,1.171,2.699,4.2,1.042,1.04,4.217,3.801
745.0,,,11283678.42,-0.674,1.172,2.699,4.2,1.038,1.04,4.204,3.804
748.0,,,11326535.077,-0.674,1.163,2.699,4.2,1.041,1.037,4.212,3.792
751.0,,,11369350.25,-0.674,1.171,2.699,4.2,1.034,1.039,4.188,3.799
754.0,,,11412710.684,-0.674,1.147,2.699,4.2,1.004,1.047,4.086,3.839
757.0,,,11456257.326,-0.674,1.165,2.699,4.2,1.058,1.055,4.276,3.862
760.0,,,11499637.6,-0.674,1.161,2.699,4.2,1.057,1.059,4.273,3.881
763.0,,,11543059.403,-0.674,1.161,2.699,4.2,1.061,1.058,4.287,3.877
766.0,,,11586509.696,-0.674,1.173,2.699,4.2,1.061,1.058,4.288,3.872
769.0,,,11629762.74,-0.674,1.156,2.699,4.2,1.054,1.051,4.261,3.843
772.0,,,11672969.102,-0.674,1.158,2.699,4.2,1.05,1.052,4.242,3.85
775.0,,,11716105.862,-0.674,1.183,2.699,4.2,1.042,1.041,4.214,3.806
778.0,,,11759143.974,-0.674,1.165,2.699,4.2,1.039,1.039,4.204,3.797
781.0,,,11802163.591,-0.674,1.156,2.699,4.2,1.043,1.041,4.217,3.805
784.0,,,11845097.523,-0.674,1.17,2.699,4.2,1.038,1.037,4.201,3.791
787.0,,,11882749.897,-0.674,1.16,2.699,4.2,1.038,1.038,4.2,3.793
790.0,,,11925694.972,-0.674,1.155,2.699,4.2,1.04,1.041,4.209,3.807
793.0,,,11968619.413,-0.674,1.175,2.699,4.2,1.037,1.038,4.193,3.797
796.0,,,12006275.024,-0.674,1.155,2.699,4.2,1.038,1.038,4.199,3.794
799.0,,,12049195.028,-0.674,1.188,2.699,4.2,1.036,1.034,4.193,3.78
802.0,,,12091981.861,-0.674,1.156,2.699,4.2,1.033,1.035,4.178,3.785
805.0,,,12135523.985,-0.674,1.171,2.699,4.2,1.05,1.045,4.246,3.821
808.0,,,12178798.37,-0.674,1.168,2.699,4.2,1.045,1.044,4.227,3.817
811.0,,,12217336.467,-0.674,1.12,2.699,4.2,0.608,1.04,2.51,3.813
814.0,,,12260309.092,-0.674,1.152,2.699,4.2,1.043,1.043,4.215,3.817
817.0,,,12303260.636,-0.674,1.172,2.699,4.2,1.044,1.045,4.218,3.826
820.0,,,12346258.658,-0.674,1.177,2.699,4.2,1.04,1.041,4.202,3.806
823.0,,,12389193.502,-0.674,1.154,2.699,4.2,1.039,1.037,4.202,3.792
826.0,,,12432072.743,-0.674,1.175,2.699,4.2,1.035,1.034,4.187,3.777
829.0,,,12474929.063,-0.674,1.159,2.699,4.2,1.034,1.035,4.183,3.783
832.0,,,12512483.301,-0.674,1.157,2.699,4.2,1.03,1.027,4.167,3.751
835.0,,,12549917.817,-0.674,1.164,2.699,4.2,1.027,1.026,4.155,3.746
838.0,,,12592633.475,-0.674,1.169,2.699,4.2,1.026,1.025,4.153,3.745
841.0,,,12635276.52,-0.674,1.161,2.699,4.2,1.026,1.026,4.151,3.746
844.0,,,12677966.923,-0.674,1.164,2.699,4.2,1.026,1.026,4.149,3.749
847.0,,,12720702.727,-0.674,1.166,2.699,4.2,1.027,1.029,4.153,3.763
850.0,,,12763322.589,-0.674,1.164,2.699,4.2,1.024,1.027,4.14,3.753
853.0,,,12805989.113,-0.674,1.159,2.699,4.2,1.024,1.026,4.142,3.747
856.0,,,12834537.64,-0.674,1.164,2.699,4.2,1.025,1.035,4.145,3.784
859.0,,,12877061.222,-0.674,1.154,2.699,4.2,1.029,1.03,4.158,3.766
862.0,,,12919625.159,-0.674,1.163,2.699,4.2,1.023,1.025,4.138,3.744
865.0,,,12962007.672,-0.674,1.161,2.699,4.2,1.02,1.018,4.126,3.717
868.0,,,13004444.843,-0.674,1.168,2.699,4.2,1.015,1.016,4.109,3.708
871.0,,,13041396.947,-0.674,1.184,2.699,4.2,1.008,1.008,4.081,3.676
874.0,,,13083567.225,-0.674,1.166,2.699,4.2,1.007,1.005,4.078,3.666
877.0,,,13125622.258,-0.674,1.171,2.699,4.2,1.002,1.002,4.06,3.652
880.0,,,13167633.178,-0.674,1.196,2.699,4.2,1.001,1.001,4.058,3.648
883.0,,,13209599.009,-0.674,1.177,2.699,4.2,0.997,1.0,4.04,3.643
886.0,,,13251596.302,-0.674,1.172,2.699,4.2,1.004,1.006,4.066,3.672
889.0,,,13293727.2,-0.674,1.168,2.699,4.2,1.006,1.005,4.072,3.666
892.0,,,13335870.197,-0.674,1.167,2.699,4.2,1.006,1.007,4.074,3.674
895.0,,,13378017.963,-0.674,1.169,2.699,4.2,1.006,1.006,4.071,3.67
898.0,,,13420161.672,-0.674,1.159,2.699,4.2,1.004,1.002,4.065,3.653
901.0,,,13462204.097,-0.674,1.165,2.699,4.2,1.001,1.001,4.055,3.648
904.0,,,13504195.641,-0.674,1.165,2.699,4.2,0.998,0.999,4.045,3.643
907.0,,,13547476.544,-0.674,1.18,2.699,4.2,1.021,1.018,4.132,3.716
910.0,,,13590020.901,-0.674,1.173,2.699,4.2,1.016,1.017,4.112,3.71
913.0,,,13632636.951,-0.674,1.168,2.699,4.2,1.019,1.017,4.123,3.711
916.0,,,13675165.164,-0.674,1.162,2.699,4.2,1.014,1.018,4.106,3.715
919.0,,,13717695.577,-0.674,1.173,2.699,4.2,1.013,1.013,4.101,3.693
922.0,,,13760180.143,-0.674,1.164,2.699,4.2,1.012,1.009,4.097,3.68
925.0,,,13789701.458,0.0,0.675,3.293,3.927,0.199,0.0,0.77,0.0
928.0,,,13825591.08,-0.674,0.675,2.699,4.196,0.767,0.779,3.065,2.804
931.0,,,13868170.337,-0.674,1.181,2.699,4.2,1.009,1.007,4.085,3.671
934.0,,,13910463.355,-0.674,1.171,2.699,4.2,1.006,1.005,4.075,3.663
937.0,,,13952760.461,-0.674,1.175,2.699,4.2,1.004,1.006,4.065,3.663
940.0,,,13995010.123,-0.674,1.164,2.699,4.2,1.002,1.004,4.055,3.657
943.0,,,14037250.92,-0.674,1.166,2.699,4.2,1.002,1.001,4.058,3.647
946.0,,,14079582.944,-0.674,1.16,2.699,4.2,1.007,1.005,4.077,3.662
949.0,,,14121724.437,-0.674,1.162,2.699,4.2,1.002,1.0,4.057,3.643
952.0,,,14163860.784,-0.674,1.183,2.699,4.2,1.001,1.0,4.051,3.642
955.0,,,14205963.401,-0.674,1.177,2.699,4.2,0.998,0.997,4.043,3.631
958.0,,,14248019.295,-0.674,1.165,2.699,4.2,1.0,0.999,4.049,3.642
961.0,,,14290040.861,-0.674,1.188,2.699,4.2,0.997,0.996,4.036,3.628
964.0,,,14332035.71,-0.674,1.165,2.699,4.2,0.995,0.991,4.031,3.61
967.0,,,14373859.71,-0.674,1.164,2.699,4.2,0.987,0.985,4.001,3.586
970.0,,,14413127.221,-0.674,1.175,2.699,4.2,0.989,0.99,4.007,3.608
973.0,,,14454974.81,-0.674,1.18,2.699,4.2,0.988,0.989,4.001,3.601
976.0,,,14496779.755,-0.674,1.182,2.699,4.2,0.987,0.986,4.001,3.589
979.0,,,14538474.987,-0.674,1.163,2.699,4.2,0.983,0.984,3.982,3.582
982.0,,,14580143.35,-0.674,1.168,2.699,4.2,0.981,0.983,3.975,3.577
985.0,,,14621779.27,-0.674,1.17,2.699,4.2,0.981,0.981,3.977,3.571
988.0,,,14663655.932,-0.674,1.174,2.699,4.2,0.99,0.988,4.007,3.598
991.0,,,14705387.698,-0.674,1.174,2.699,4.2,0.985,0.985,3.992,3.584
994.0,,,14747273.019,-0.674,1.181,2.699,4.2,0.991,0.989,4.012,3.605
997.0,,,14789018.059,-0.674,1.163,2.699,4.2,0.984,0.985,3.985,3.586
1000.0,,,14830818.412,-0.674,1.168,2.699,4.2,0.988,0.989,4.0,3.605
1003.0,,,14872583.272,-0.674,1.184,2.699,4.2,0.985,0.987,3.99,3.594
1006.0,,,14914341.4,-0.674,1.169,2.699,4.2,0.989,0.988,4.005,3.599
1009.0,,,14956043.999,-0.674,1.164,2.699,4.2,0.982,0.982,3.977,3.573
1012.0,,,14997720.919,-0.674,1.163,2.699,4.2,0.983,0.984,3.981,3.584
1015.0,,,15039300.13,-0.674,1.174,2.699,4.2,0.977,0.977,3.957,3.556
1018.0,,,15080820.905,-0.674,1.162,2.699,4.2,0.975,0.976,3.953,3.551
1021.0,,,15123808.807,-0.674,1.159,2.699,4.2,0.996,1.004,4.033,3.66
1024.0,,,15166584.149,-0.674,1.181,2.699,4.2,1.007,1.006,4.072,3.666
1027.0,,,15209153.724,-0.674,1.17,2.699,4.2,1.004,1.01,4.061,3.682
1030.0,,,15252012.751,-0.674,1.152,2.699,4.2,1.009,1.004,4.077,3.657
1033.0,,,15294353.713,-0.674,1.171,2.699,4.2,0.99,1.002,4.009,3.646
1036.0,,,15337077.186,-0.674,1.172,2.699,4.2,1.0,0.996,4.046,3.626
1039.0,,,15373722.08,-0.674,1.179,2.699,4.2,0.998,0.985,4.042,3.585
1042.0,,,15410841.695,-0.674,1.154,2.699,4.2,1.017,1.019,4.106,3.722
1045.0,,,15453994.749,-0.674,1.152,2.699,4.2,1.03,1.031,4.157,3.768
1048.0,,,15497404.725,-0.674,1.151,2.699,4.2,1.036,1.039,4.179,3.8
1051.0,,,15541021.763,-0.674,1.14,2.699,4.2,1.042,1.044,4.201,3.82
1054.0,,,15584647.754,-0.674,1.144,2.699,4.2,1.045,1.032,4.211,3.772
1057.0,,,15627289.711,-0.674,1.169,2.699,4.2,0.998,1.004,4.038,3.658
1060.0,,,15660289.311,-0.674,1.153,2.699,4.2,1.013,1.015,4.09,3.699
1063.0,,,15702940.94,-0.674,1.166,2.699,4.2,1.016,1.011,4.101,3.683
1066.0,,,15727826.398,-0.674,0.0,2.699,4.098,0.0,0.911,0.0,3.29
1069.0,,,15770674.241,-0.674,1.147,2.699,4.2,1.022,1.025,4.127,3.744
1072.0,,,15813909.877,-0.674,1.152,2.699,4.2,1.03,1.032,4.155,3.771
1075.0,,,15857279.243,-0.674,1.141,2.699,4.2,1.033,1.036,4.167,3.786
1078.0,,,15900739.64,-0.674,1.152,2.699,4.2,1.038,1.04,4.187,3.802
1081.0,,,15944284.734,-0.674,1.146,2.699,4.2,1.039,1.03,4.191,3.759
1084.0,,,15974910.443,0.0,0.675,3.269,3.991,0.379,0.0,1.479,0.0
1087.0,,,16015773.773,-0.674,1.157,2.699,4.2,1.013,1.018,4.094,3.712
1090.0,,,16058235.693,-0.674,1.157,2.699,4.2,0.999,0.997,4.042,3.627
1093.0,,,16100872.494,-0.674,1.159,2.699,4.2,1.004,1.008,4.061,3.675
1096.0,,,16143239.411,-0.674,1.165,2.699,4.2,0.99,0.99,4.008,3.6
1099.0,,,16185663.014,-0.674,1.162,2.699,4.2,0.999,1.003,4.042,3.655
1102.0,,,16228073.529,-0.674,1.164,2.699,4.2,0.986,0.987,3.991,3.588
1105.0,,,16270371.711,-0.674,1.172,2.699,4.2,0.993,1.0,4.018,3.639
1108.0,,,16312704.983,-0.674,1.176,2.699,4.2,0.983,0.983,3.979,3.575
1111.0,,,16354983.915,-0.674,1.163,2.699,4.2,0.987,0.994,3.996,3.62
1114.0,,,16397867.56,-0.674,1.155,2.699,4.2,1.007,1.011,4.07,3.685
1117.0,,,16435471.667,-0.674,1.15,2.699,4.2,1.021,1.014,4.125,3.7
1120.0,,,16478797.167,-0.674,1.148,2.699,4.2,1.019,1.021,4.113,3.727
1123.0,,,16522201.69,-0.674,1.144,2.699,4.2,1.023,1.025,4.13,3.742
1126.0,,,16560621.173,-0.674,1.165,3.259,4.2,0.996,0.14,4.028,0.558
1129.0,,,16597411.114,-0.674,1.187,2.699,4.2,0.987,0.996,3.996,3.625
1132.0,,,16639932.917,-0.674,1.16,2.699,4.2,0.987,0.982,3.996,3.567
1135.0,,,16682388.055,-0.674,1.166,2.699,4.2,0.979,0.985,3.965,3.581
1138.0,,,16724998.497,-0.674,1.174,2.699,4.2,0.982,0.982,3.977,3.568
1141.0,,,16767294.462,-0.674,1.17,2.699,4.2,0.974,0.98,3.946,3.558
1144.0,,,16809863.477,-0.674,1.162,2.699,4.2,0.985,0.981,3.986,3.564
1147.0,,,16852092.115,-0.674,1.183,2.699,4.2,0.974,0.98,3.943,3.558
1150.0,,,16894634.989,-0.674,1.164,2.699,4.2,0.983,0.978,3.977,3.551
1153.0,,,16936649.807,-0.674,1.179,2.699,4.2,0.974,0.973,3.943,3.531
1156.0,,,16973617.545,-0.674,1.153,2.699,4.2,0.999,0.995,4.042,3.625
1159.0,,,17016538.315,-0.674,1.157,2.699,4.2,1.004,1.007,4.057,3.672
1162.0,,,17059566.449,-0.674,1.154,2.699,4.2,1.009,1.012,4.075,3.691
1165.0,,,17102683.664,-0.674,1.152,2.699,4.2,1.013,1.015,4.09,3.702
1168.0,,,17145501.814,-0.674,1.154,2.699,4.2,1.006,0.993,4.061,3.611
1171.0,,,17187708.454,-0.674,1.17,2.699,4.2,0.979,0.976,3.962,3.545
1174.0,,,17230265.547,-0.674,1.174,2.699,4.2,0.994,0.985,4.018,3.583
1177.0,,,17273369.99,-0.674,1.164,2.699,4.2,0.935,0.966,3.814,3.525
1180.0,,,17316010.252,-0.674,1.176,2.699,4.2,0.992,0.995,4.013,3.625
1183.0,,,17358236.401,-0.674,1.18,2.699,4.2,0.979,0.979,3.965,3.556
1186.0,,,17400595.209,-0.674,1.166,2.699,4.2,0.985,0.99,3.986,3.603
1189.0,,,17442828.17,-0.674,1.17,2.699,4.2,0.974,0.977,3.944,3.547
1192.0,,,17476091.078,0.0,1.166,3.276,4.2,0.863,0.0,3.478,0.0
1195.0,,,17512531.084,-0.674,1.164,2.699,4.2,0.991,1.0,4.004,3.642
1198.0,,,17554484.092,-0.674,1.181,2.699,4.2,0.976,0.978,3.95,3.552
1201.0,,,17596509.653,-0.674,1.158,2.699,4.2,0.979,0.986,3.962,3.587
1204.0,,,17638501.903,-0.674,1.169,2.699,4.2,0.965,0.97,3.91,3.524
1207.0,,,17674766.039,-0.674,1.188,2.699,4.2,0.966,0.977,3.918,3.552
1210.0,,,17716644.094,-0.674,1.173,2.699,4.2,0.955,0.956,3.872,3.464
1213.0,,,17758315.288,-0.674,1.179,2.699,4.2,0.95,0.959,3.857,3.482
1216.0,,,17799883.614,-0.674,1.179,2.699,4.2,0.949,0.948,3.85,3.44
1219.0,,,17841181.307,-0.674,1.173,2.699,4.2,0.939,0.948,3.813,3.435
1222.0,,,17883191.293,-0.674,1.169,2.699,4.2,0.973,0.975,3.938,3.546
1225.0,,,17925533.237,-0.674,1.163,2.699,4.2,0.983,0.984,3.974,3.582
1228.0,,,17968041.288,-0.674,1.157,2.699,4.2,0.988,0.99,3.994,3.603
1231.0,,,18010653.783,-0.674,1.158,2.699,4.2,0.993,0.994,4.013,3.621
1234.0,,,18053094.467,-0.674,1.161,2.699,4.2,0.975,0.964,3.943,3.501
1237.0,,,18094812.702,-0.674,1.164,2.699,4.2,0.957,0.954,3.877,3.458
1240.0,,,18136865.709,-0.674,1.168,2.699,4.2,0.971,0.956,3.929,3.47
1243.0,,,18179438.303,-0.674,1.176,2.699,4.2,0.942,0.969,3.839,3.526
1246.0,,,18221857.483,-0.674,1.178,2.699,4.2,0.985,0.987,3.986,3.591
1249.0,,,18263962.719,-0.674,1.183,2.699,4.2,0.962,0.965,3.897,3.499
1252.0,,,18306008.043,-0.674,1.176,2.699,4.2,0.974,0.98,3.943,3.561
1255.0,,,18347882.8,-0.674,1.186,2.699,4.2,0.964,0.96,3.907,3.487
1258.0,,,18389769.301,-0.674,1.167,2.699,4.2,0.968,0.973,3.92,3.537
1261.0,,,18432194.295,-0.674,1.168,2.699,4.2,0.982,0.984,3.973,3.582
1264.0,,,18474825.038,-0.674,1.164,2.699,4.2,0.989,0.991,3.996,3.609
1267.0,,,18517559.236,-0.674,1.167,2.699,4.2,0.993,0.995,4.013,3.623
1270.0,,,18560396.544,-0.674,1.159,2.699,4.2,0.995,0.997,4.02,3.633
1273.0,,,18602349.608,-0.674,1.177,2.699,4.2,0.951,0.95,3.855,3.448
1276.0,,,18644147.119,-0.674,1.173,2.699,4.2,0.965,0.973,3.907,3.535
1279.0,,,18685784.378,-0.674,1.18,2.699,4.2,0.944,0.946,3.828,3.429
1282.0,,,18727067.543,-0.674,1.169,2.699,4.2,0.945,0.956,3.832,3.468
1285.0,,,18768627.503,-0.674,1.183,2.699,4.2,0.934,0.926,3.791,3.354
1288.0,,,18809592.008,-0.674,1.193,2.699,4.2,0.927,0.947,3.766,3.433
1291.0,,,18850710.719,-0.674,1.185,2.699,4.2,0.926,0.926,3.761,3.355
1294.0,,,18893207.816,-0.674,1.17,2.699,4.2,0.951,0.935,3.855,3.389
1297.0,,,18935597.497,-0.674,1.166,2.699,4.2,0.964,0.952,3.903,3.448
1300.0,,,18977390.257,-0.674,1.174,2.699,4.2,0.943,0.937,3.825,3.392
1303.0,,,19019339.362,-0.674,1.168,2.699,4.2,0.959,0.946,3.88,3.427
1306.0,,,19060802.575,-0.674,1.184,2.699,4.2,0.937,0.932,3.801,3.37
1309.0,,,19088655.773,-0.674,1.151,2.699,4.2,0.575,0.937,2.377,3.405
1312.0,,,19130327.15,-0.674,1.164,2.699,4.2,0.957,0.965,3.875,3.503
1315.0,,,19165999.897,-0.674,1.174,2.699,4.2,0.937,0.927,3.806,3.354
1318.0,,,19207292.698,-0.674,1.182,2.699,4.2,0.923,0.94,3.751,3.402
1321.0,,,19248508.352,-0.674,1.178,2.699,4.2,0.923,0.921,3.749,3.331
1324.0,,,19289418.749,-0.674,1.175,2.699,4.2,0.911,0.923,3.701,3.339
1327.0,,,19330601.933,-0.674,1.185,2.699,4.2,0.917,0.913,3.723,3.3
1330.0,,,19371104.251,-0.674,1.191,2.699,4.2,0.9,0.905,3.659,3.265
1333.0,,,19412590.886,-0.674,1.173,2.699,4.2,0.942,0.945,3.819,3.425
1336.0,,,19454501.068,-0.674,1.17,2.699,4.2,0.952,0.956,3.857,3.468
1339.0,,,19496556.472,-0.674,1.169,2.699,4.2,0.959,0.961,3.881,3.489
1342.0,,,19538821.477,-0.674,1.166,2.699,4.2,0.963,0.965,3.897,3.502
1345.0,,,19580742.022,-0.674,1.169,2.699,4.2,0.949,0.93,3.84,3.36
1348.0,,,19621845.803,-0.674,1.2,2.699,4.2,0.917,0.915,3.723,3.303
1351.0,,,19663330.91,-0.674,1.17,2.699,4.2,0.936,0.925,3.796,3.345
1354.0,,,19703932.627,-0.674,1.18,2.699,4.2,0.904,0.896,3.672,3.233
1357.0,,,19744808.935,-0.674,1.172,2.699,4.2,0.924,0.92,3.752,3.336
1360.0,,,19786109.536,-0.674,1.184,2.699,4.2,0.9,0.885,3.66,3.194
1363.0,,,19816227.812,0.0,0.674,3.363,4.196,0.598,0.0,2.403,0.0
1366.0,,,19853692.976,-0.674,1.187,2.699,4.2,0.937,0.946,3.801,3.416
1369.0,,,19894862.022,-0.674,1.187,2.699,4.2,0.913,0.913,3.712,3.29
1372.0,,,19936110.516,-0.674,1.195,2.699,4.2,0.921,0.925,3.741,3.339
1375.0,,,19971260.432,-0.674,1.185,2.699,4.2,0.902,0.9,3.67,3.243
1378.0,,,20005851.95,-0.674,1.173,2.699,4.2,0.892,0.893,3.629,3.212
1381.0,,,20046977.546,-0.674,1.177,2.699,4.2,0.904,0.893,3.677,3.212
1384.0,,,20087458.453,-0.674,1.194,2.699,4.2,0.889,0.883,3.618,3.177
1387.0,,,20128514.17,-0.674,1.182,2.699,4.2,0.913,0.917,3.71,3.312
1390.0,,,20170055.372,-0.674,1.173,2.699,4.2,0.924,0.928,3.751,3.355
1393.0,,,20211884.873,-0.674,1.175,2.699,4.2,0.934,0.938,3.789,3.392
1396.0,,,20253895.949,-0.674,1.165,2.699,4.2,0.939,0.942,3.809,3.408
1399.0,,,20295835.823,-0.674,1.18,2.699,4.2,0.943,0.92,3.823,3.321
1402.0,,,20324941.548,-0.674,0.719,2.699,4.2,0.077,0.93,0.324,3.337
1405.0,,,20364967.734,-0.674,1.179,2.699,4.2,0.9,0.888,3.655,3.199
1408.0,,,20404699.123,-0.674,1.185,2.699,4.2,0.87,0.869,3.544,3.127
1411.0,,,20444404.362,-0.674,1.178,2.699,4.2,0.88,0.883,3.581,3.187
1414.0,,,20483160.507,-0.674,1.184,2.699,4.2,0.832,0.828,3.397,2.971
1417.0,,,20521797.544,-0.674,1.213,2.699,4.2,0.843,0.856,3.439,3.078
1420.0,,,20561385.251,-0.674,1.183,2.699,4.2,0.869,0.873,3.538,3.146
1423.0,,,20601328.681,-0.674,1.196,2.699,4.2,0.88,0.881,3.577,3.176
1426.0,,,20641381.254,-0.674,1.201,2.699,4.2,0.881,0.884,3.584,3.186
1429.0,,,20681582.761,-0.674,1.181,2.699,4.2,0.885,0.888,3.599,3.201
1432.0,,,20721158.418,-0.674,1.189,2.699,4.2,0.849,0.838,3.46,3.006
1435.0,,,20759990.125,-0.674,1.204,2.699,4.2,0.841,0.83,3.429,2.977
1438.0,,,20798985.787,-0.674,1.181,2.699,4.2,0.853,0.839,3.469,3.012
1441.0,,,20835070.897,-0.674,1.186,3.349,4.2,0.824,0.383,3.362,1.458
1444.0,,,20871069.735,-0.674,1.195,2.699,4.2,0.839,0.852,3.421,3.061
1447.0,,,20910183.168,-0.674,1.21,2.699,4.2,0.832,0.831,3.398,2.981
1450.0,,,20948840.184,-0.674,1.192,2.699,4.2,0.823,0.835,3.363,2.994
1453.0,,,20981207.614,-0.674,0.675,2.699,4.196,0.547,0.563,2.198,1.991
1456.0,,,21020108.336,-0.674,1.188,2.699,4.2,0.824,0.818,3.362,2.932
1459.0,,,21059001.283,-0.674,1.192,2.699,4.2,0.84,0.846,3.422,3.041
1462.0,,,21098480.335,-0.674,1.197,2.699,4.2,0.855,0.858,3.482,3.084
1465.0,,,21131550.093,-0.674,0.675,2.699,4.196,0.581,0.601,2.33,2.137
1468.0,,,21171871.153,-0.674,1.184,2.699,4.2,0.865,0.867,3.523,3.12
1471.0,,,21211816.701,-0.674,1.193,2.699,4.2,0.866,0.869,3.525,3.126
1474.0,,,21251189.132,-0.674,1.223,2.699,4.2,0.834,0.83,3.402,2.973
1477.0,,,21289909.916,-0.674,1.205,2.699,4.2,0.819,0.825,3.345,2.953
1480.0,,,21329127.491,-0.674,1.201,2.699,4.2,0.837,0.825,3.414,2.954
1483.0,,,21367633.484,-0.674,1.191,2.699,4.2,0.812,0.808,3.316,2.892
1486.0,,,21406456.456,-0.674,1.2,2.699,4.2,0.836,0.826,3.408,2.962
1489.0,,,21437882.952,-0.674,0.675,2.699,4.195,0.514,0.534,2.068,1.884
1492.0,,,21477337.664,-0.674,1.221,2.699,4.2,0.744,0.786,3.068,2.818
1495.0,,,21516682.491,-0.674,1.19,2.699,4.2,0.831,0.826,3.393,2.962
1498.0,,,21555032.658,-0.674,1.204,2.699,4.2,0.792,0.786,3.241,2.804
1501.0,,,21593304.935,-0.674,1.2,2.699,4.2,0.8,0.812,3.272,2.903
1504.0,,,21631020.686,-0.674,1.21,2.699,4.2,0.768,0.763,3.15,2.717
1507.0,,,21668014.137,-0.674,1.198,2.699,4.2,0.753,0.771,3.09,2.746
1510.0,,,21705374.755,-0.674,1.206,2.699,4.2,0.765,0.753,3.134,2.68
1513.0,,,21741968.854,-0.674,1.203,2.699,4.2,0.749,0.746,3.073,2.654
1516.0,,,21779225.168,-0.674,1.192,2.699,4.2,0.778,0.783,3.184,2.794
1519.0,,,21817172.2,-0.674,1.205,2.699,4.2,0.795,0.797,3.25,2.846
1522.0,,,21855481.527,-0.674,1.204,2.699,4.2,0.805,0.807,3.291,2.884
1525.0,,,21894035.361,-0.674,1.2,2.699,4.2,0.811,0.812,3.312,2.902
1528.0,,,21932850.198,-0.674,1.206,2.699,4.2,0.817,0.818,3.338,2.925
1531.0,,,21970704.647,-0.674,1.206,2.699,4.2,0.766,0.761,3.138,2.702
1534.0,,,22007702.155,-0.674,1.192,2.699,4.2,0.75,0.752,3.078,2.673
1537.0,,,22044347.266,-0.674,1.216,2.699,4.2,0.74,0.737,3.038,2.616
1540.0,,,22080848.87,-0.674,1.211,2.699,4.2,0.74,0.739,3.038,2.627
1543.0,,,22118928.2,-0.674,1.204,2.699,4.2,0.777,0.76,3.186,2.702
1546.0,,,22156092.904,-0.674,1.23,2.699,4.2,0.743,0.741,3.052,2.628
1549.0,,,22185986.395,-0.674,1.217,2.699,4.2,0.735,0.731,3.019,2.592
1552.0,,,22209656.002,-0.674,1.037,2.699,4.2,0.197,0.781,0.826,2.765
1555.0,,,22246020.506,-0.674,1.21,2.699,4.2,0.725,0.723,2.982,2.557
1558.0,,,22281967.929,-0.674,1.204,2.699,4.2,0.717,0.718,2.95,2.542
1561.0,,,22318020.092,-0.674,1.209,2.699,4.2,0.728,0.725,2.991,2.572
1564.0,,,22353979.175,-0.674,1.232,2.699,4.2,0.722,0.713,2.967,2.527
1567.0,,,22389503.277,-0.674,1.231,2.699,4.2,0.708,0.71,2.911,2.514
1570.0,,,22424984.243,-0.674,1.229,2.699,4.2,0.709,0.705,2.915,2.499
1573.0,,,22460154.14,-0.674,1.236,2.699,4.2,0.7,0.7,2.878,2.479
1576.0,,,22495116.025,-0.674,1.229,2.699,4.2,0.69,0.682,2.841,2.413
1579.0,,,22529920.354,-0.674,1.224,2.699,4.2,0.69,0.689,2.839,2.437
1582.0,,,22564487.547,-0.674,1.206,2.699,4.2,0.685,0.684,2.818,2.42
1585.0,,,22598693.343,-0.674,1.202,2.699,4.2,0.674,0.671,2.777,2.369
1588.0,,,22632684.534,-0.674,1.204,2.699,4.2,0.665,0.665,2.742,2.349
1591.0,,,22659538.33,-0.674,0.675,2.699,4.197,0.355,0.376,1.44,1.307
1594.0,,,22687243.589,-0.674,1.218,2.699,4.2,0.677,0.66,2.794,2.333
1597.0,,,22721254.872,-0.674,1.205,2.699,4.2,0.667,0.664,2.748,2.344
1600.0,,,22748478.148,-0.674,1.229,2.699,4.2,0.676,0.652,2.787,2.302
1603.0,,,22784504.402,-0.674,1.244,2.699,4.2,0.746,0.721,3.057,2.554
1606.0,,,22820530.414,-0.674,1.209,2.699,4.2,0.713,0.701,2.93,2.475
1609.0,,,22856083.851,-0.674,1.25,2.699,4.2,0.703,0.7,2.89,2.472
1612.0,,,22891456.455,-0.674,1.203,2.699,4.2,0.698,0.699,2.871,2.469
1615.0,,,22926757.184,-0.675,1.2,2.699,4.2,0.694,0.69,2.853,2.437
1618.0,,,22961358.534,-0.674,1.202,2.699,4.2,0.672,0.669,2.768,2.36
1621.0,,,22995387.696,-0.674,1.214,2.699,4.2,0.663,0.654,2.73,2.306
1624.0,,,23029094.512,-0.674,1.215,2.699,4.2,0.654,0.654,2.693,2.305
1627.0,,,23062652.935,-0.674,1.205,2.699,4.2,0.649,0.647,2.674,2.28
1630.0,,,23096006.229,-0.674,1.218,2.699,4.2,0.64,0.641,2.64,2.259
1633.0,,,23129198.327,-0.674,1.198,2.699,4.2,0.64,0.634,2.636,2.235
1636.0,,,23162043.773,-0.674,1.209,2.699,4.2,0.633,0.632,2.609,2.227
1639.0,,,23194887.101,-0.674,1.19,2.699,4.2,0.635,0.638,2.617,2.249
1642.0,,,23227724.845,-0.674,1.254,2.699,4.2,0.636,0.636,2.62,2.241
1645.0,,,23260370.391,-0.674,1.196,2.699,4.2,0.631,0.633,2.602,2.229
1648.0,,,23293168.535,-0.674,1.191,2.699,4.2,0.635,0.636,2.615,2.241
1651.0,,,23326134.606,-0.674,1.208,2.699,4.2,0.64,0.64,2.636,2.258
1654.0,,,23360415.014,-0.674,1.234,2.699,4.2,0.642,0.626,2.644,2.198
1657.0,,,23386842.54,-0.674,1.19,2.699,4.2,0.627,0.621,2.587,2.184
1660.0,,,23419061.707,-0.674,1.208,2.699,4.2,0.618,0.617,2.55,2.171
1663.0,,,23450874.23,-0.674,1.207,2.699,4.2,0.607,0.607,2.506,2.132
1666.0,,,23482356.622,-0.674,1.192,2.699,4.2,0.602,0.594,2.483,2.086
1669.0,,,23513645.317,-0.674,1.234,2.699,4.2,0.602,0.6,2.483,2.112
1672.0,,,23544746.595,-0.674,1.197,2.699,4.2,0.59,0.592,2.435,2.081
1675.0,,,23575667.409,-0.674,1.213,2.699,4.2,0.589,0.589,2.429,2.07
1678.0,,,23607079.136,-0.674,1.199,2.699,4.2,0.617,0.619,2.544,2.18
1681.0,,,23638907.956,-0.674,1.19,2.699,4.2,0.613,0.613,2.525,2.161
1684.0,,,23670657.102,-0.674,1.213,2.699,4.2,0.608,0.613,2.505,2.158
1687.0,,,23702356.381,-0.674,1.191,2.699,4.2,0.61,0.609,2.512,2.145
1690.0,,,23727835.946,-0.674,1.19,2.699,4.2,0.604,0.599,2.491,2.106
1693.0,,,23759132.035,-0.674,1.209,2.699,4.2,0.603,0.61,2.488,2.148
1696.0,,,23790893.918,-0.674,1.209,2.699,4.2,0.61,0.603,2.515,2.122
1699.0,,,23821582.244,-0.674,1.219,2.699,4.2,0.574,0.574,2.369,2.016
1701.0,,,23841386.94,-0.674,1.214,2.699,4.2,0.557,0.56,2.301,1.963