File: Li-ion_Batteries/UL-PUR_R15-OV3_18650_NCA_23C_2.5-96.5_0.5-0.5C_c_cycle_data.csv
Cycle_Index,Test_Time (s),Min_Current (A),Max_Current (A),Min_Voltage (V),Max_Voltage (V),Charge_Capacity (Ah),Discharge_Capacity (Ah),Charge_Energy (Wh),Discharge_Energy (Wh)
1.0,17839.755,-1.133,1.134,2.9,4.0,1.6,2.7,6.155,9.424
2.0,39424.297,-1.133,1.134,2.9,4.0,2.7,2.696,10.097,9.407
3.0,61052.768,-1.133,1.134,2.9,4.0,2.698,2.695,10.091,9.401
4.0,82623.12,-1.133,1.134,2.9,4.0,2.697,2.695,10.09,9.403
5.0,104216.25,-1.133,1.134,2.9,4.0,2.698,2.695,10.09,9.404
6.0,125682.714,-1.133,1.134,2.9,4.0,2.698,2.695,10.083,9.411
7.0,147166.313,-1.133,1.134,2.9,4.0,2.698,2.695,10.089,9.406
8.0,163580.388,-1.133,1.134,2.9,4.0,2.348,2.346,8.687,8.081
9.0,185040.696,-1.133,1.134,2.9,4.0,2.695,2.693,10.08,9.399
10.0,206511.268,-1.133,1.134,2.9,4.0,2.696,2.693,10.084,9.398
11.0,227977.96,-1.133,1.134,2.9,4.0,2.695,2.692,10.079,9.394
12.0,249486.622,-1.133,1.134,2.9,4.0,2.695,2.692,10.078,9.394
13.0,270999.905,-1.133,1.134,2.9,4.0,2.694,2.691,10.074,9.389
14.0,292516.057,-1.133,1.134,2.9,4.0,2.693,2.69,10.072,9.387
15.0,313968.784,-1.133,1.134,2.9,4.0,2.693,2.69,10.073,9.385
16.0,330371.44,-1.133,1.134,2.9,4.0,2.339,2.339,8.658,8.05
17.0,351934.198,-1.133,1.134,2.9,4.0,2.691,2.688,10.065,9.377
18.0,373452.287,-1.133,1.134,2.9,4.0,2.69,2.687,10.065,9.372
19.0,395049.623,-1.133,1.134,2.9,4.0,2.689,2.685,10.058,9.358
20.0,416562.101,-1.133,1.134,2.9,4.0,2.688,2.686,10.059,9.364
21.0,438124.409,-1.133,1.134,2.9,4.0,2.688,2.686,10.059,9.365
22.0,459608.006,-1.133,1.134,2.9,4.0,2.688,2.686,10.058,9.37
23.0,481004.458,-1.133,1.134,2.9,4.0,2.69,2.687,10.059,9.378
24.0,497329.909,-1.133,1.134,2.9,4.0,2.336,2.336,8.644,8.038
25.0,518785.061,-1.133,1.134,2.9,4.0,2.688,2.685,10.054,9.369
26.0,540210.971,-1.133,1.134,2.9,4.0,2.688,2.685,10.053,9.37
27.0,561644.913,-1.133,1.134,2.9,4.0,2.688,2.685,10.052,9.369
28.0,583077.211,-1.133,1.134,2.9,4.0,2.688,2.684,10.051,9.367
29.0,604508.719,-1.133,1.134,2.9,4.0,2.687,2.684,10.049,9.367
30.0,625907.395,-1.133,1.134,2.9,4.0,2.687,2.684,10.048,9.366
31.0,642176.493,-1.133,1.134,2.9,4.0,2.34,2.34,8.657,8.06
32.0,663559.06,-1.133,1.134,2.9,4.0,2.687,2.684,10.043,9.369
33.0,684950.561,-1.133,1.134,2.9,4.0,2.686,2.681,10.044,9.354
34.0,706426.044,-1.133,1.134,2.9,4.0,2.683,2.681,10.04,9.349
35.0,727892.401,-1.133,1.134,2.9,4.0,2.684,2.68,10.04,9.348
36.0,749463.243,-1.133,1.134,2.9,4.0,2.683,2.68,10.037,9.345
37.0,770968.5,-1.133,1.134,2.9,4.0,2.683,2.679,10.036,9.342
38.0,792454.689,-1.133,1.134,2.9,4.0,2.681,2.679,10.032,9.339
39.0,813932.228,-1.133,1.134,2.9,4.0,2.681,2.678,10.032,9.332
40.0,835491.71,-1.133,1.134,2.9,4.0,2.681,2.678,10.032,9.333
41.0,856960.636,-1.133,1.134,2.9,4.0,2.68,2.678,10.028,9.333
42.0,878439.799,-1.133,1.134,2.9,4.0,2.68,2.677,10.027,9.327
43.0,899932.076,-1.133,1.134,2.9,4.0,2.68,2.676,10.027,9.325
44.0,921356.329,-1.133,1.134,2.9,4.0,2.678,2.676,10.022,9.325
45.0,942850.267,-1.133,1.134,2.9,4.0,2.679,2.676,10.025,9.323
46.0,964394.313,-1.133,1.134,2.9,4.0,2.678,2.674,10.02,9.317
47.0,985762.432,-1.133,1.134,2.9,4.0,2.677,2.676,10.019,9.327
48.0,1007197.408,-1.133,1.134,2.9,4.0,2.679,2.675,10.021,9.324
49.0,1028673.182,-1.133,1.134,2.9,4.0,2.677,2.674,10.017,9.32
50.0,1048406.21,-1.6,1.134,2.9,4.0,2.677,2.677,10.017,9.252
51.0,1065415.161,-1.6,1.6,2.9,4.0,2.677,2.675,10.099,9.217
52.0,1082302.231,-1.6,1.6,2.9,4.0,2.676,2.676,10.098,9.215
53.0,1099210.176,-1.6,1.6,2.9,4.0,2.677,2.675,10.102,9.218
54.0,1116248.452,-1.6,1.6,2.9,4.0,2.678,2.675,10.102,9.215
55.0,1133222.303,-1.6,1.6,2.9,4.0,2.676,2.675,10.097,9.214
56.0,1150320.95,-1.6,1.6,2.9,4.0,2.676,2.674,10.101,9.206
57.0,1165979.402,-1.6,1.6,2.9,4.0,2.675,2.498,10.095,8.697
58.0,1181195.196,-1.6,1.6,2.9,4.0,2.503,2.502,9.489,8.711
59.0,1196358.664,-1.6,1.6,2.9,4.0,2.505,2.492,9.498,8.68
60.0,1211514.853,-1.6,1.6,2.9,4.0,2.495,2.489,9.463,8.669
61.0,1226652.286,-1.61,1.6,2.9,4.0,2.492,2.494,9.452,8.683
62.0,1241800.829,-1.6,1.6,2.9,4.0,2.497,2.49,9.469,8.667
63.0,1256980.792,-1.6,1.6,2.9,4.0,2.494,2.489,9.458,8.666
64.0,1272113.753,-1.6,1.6,2.9,4.0,2.492,2.491,9.452,8.673
65.0,1287296.824,-1.6,1.6,2.9,4.0,2.495,2.494,9.463,8.683
66.0,1302413.998,-1.6,1.6,2.9,4.0,2.496,2.486,9.465,8.653
67.0,1317548.624,-1.6,1.6,2.9,4.0,2.489,2.49,9.439,8.664
68.0,1332738.464,-1.6,1.6,2.9,4.0,2.494,2.48,9.459,8.631
69.0,1342252.952,-1.6,1.6,2.9,4.0,1.98,1.981,7.408,6.767
70.0,1357415.542,-1.6,1.6,2.9,4.0,2.484,2.486,9.424,8.65
71.0,1372587.066,-1.6,1.6,2.9,4.0,2.489,2.493,9.442,8.675
72.0,1387754.267,-1.6,1.6,2.9,4.0,2.496,2.48,9.467,8.631
73.0,1402935.634,-1.6,1.6,2.9,4.0,2.484,2.481,9.424,8.634
74.0,1418088.127,-1.6,1.6,2.9,4.0,2.484,2.482,9.427,8.636
75.0,1433180.523,-1.6,1.6,2.9,4.0,2.485,2.477,9.428,8.62
76.0,1448319.163,-1.6,1.6,2.9,4.0,2.48,2.479,9.412,8.628
77.0,1463499.784,-1.6,1.6,2.9,4.0,2.483,2.488,9.422,8.657
78.0,1478623.697,-1.6,1.6,2.9,4.0,2.49,2.472,9.448,8.603
79.0,1493800.531,-1.6,1.6,2.9,4.0,2.475,2.479,9.395,8.622
80.0,1508969.796,-1.6,1.6,2.9,4.0,2.483,2.472,9.422,8.603
81.0,1524149.516,-1.6,1.6,2.9,4.0,2.476,2.479,9.398,8.624
82.0,1539330.612,-1.6,1.6,2.9,4.0,2.483,2.476,9.423,8.615
83.0,1554493.291,-1.6,1.6,2.9,4.0,2.479,2.471,9.408,8.597
84.0,1569690.28,-1.6,1.6,2.9,4.0,2.474,2.467,9.392,8.582
85.0,1584835.493,-1.6,1.6,2.9,4.0,2.47,2.469,9.377,8.588
86.0,1599983.903,-1.6,1.6,2.9,4.0,2.471,2.477,9.382,8.614
87.0,1615156.631,-1.6,1.6,2.9,4.0,2.48,2.475,9.412,8.61
88.0,1630320.948,-1.6,1.6,2.9,4.0,2.479,2.471,9.408,8.594
89.0,1645514.779,-1.6,1.6,2.9,4.0,2.474,2.479,9.392,8.619
90.0,1660713.079,-1.6,1.6,2.9,4.0,2.482,2.471,9.418,8.593
91.0,1675862.14,-1.6,1.6,2.9,4.0,2.474,2.468,9.392,8.582
92.0,1691053.194,-1.6,1.6,2.9,4.0,2.472,2.47,9.383,8.592
93.0,1706230.722,-1.6,1.6,2.9,4.0,2.474,2.468,9.392,8.587
94.0,1721422.207,-1.6,1.6,2.9,4.0,2.471,2.476,9.383,8.612
95.0,1736583.175,-1.6,1.6,2.9,4.0,2.48,2.489,9.412,8.659
96.0,1751642.054,-1.6,1.6,2.898,4.0,2.492,2.486,9.453,8.647
97.0,1766821.237,-1.6,1.6,2.9,4.001,2.489,2.49,9.44,8.662
98.0,1781981.793,-1.6,1.6,2.9,4.0,2.493,2.487,9.452,8.654
99.0,1797135.86,-1.6,1.6,2.9,4.001,2.491,2.487,9.446,8.653
100.0,1812306.86,-1.6,1.6,2.9,4.0,2.49,2.489,9.445,8.659
101.0,1827461.483,-1.606,1.6,2.9,4.001,2.492,2.486,9.45,8.648
102.0,1836951.298,-1.6,1.6,2.9,4.0,1.976,1.974,7.391,6.735
103.0,1851927.766,-1.6,1.6,2.9,4.001,2.484,2.431,9.422,8.448
104.0,1867103.9,-1.6,1.6,2.9,4.0,2.431,2.41,9.251,8.368
105.0,1882289.892,-1.6,1.6,2.9,4.0,2.413,2.402,9.19,8.337
106.0,1897558.912,-1.6,1.6,2.9,4.0,2.404,2.426,9.161,8.417
107.0,1912753.69,-1.6,1.6,2.9,4.0,2.433,2.449,9.254,8.509
108.0,1922037.779,-1.6,1.6,2.9,4.0,1.927,1.932,7.217,6.586
109.0,1937262.285,-1.6,1.6,2.9,4.0,2.457,2.456,9.337,8.537
110.0,1952453.246,-1.6,1.6,2.9,4.0,2.46,2.458,9.345,8.544
111.0,1967632.579,-1.6,1.6,2.9,4.0,2.461,2.455,9.349,8.534
112.0,1982821.291,-1.6,1.6,2.9,4.0,2.457,2.446,9.335,8.499
113.0,1998001.37,-1.6,1.6,2.9,4.0,2.448,2.443,9.307,8.486
114.0,2013179.434,-1.6,1.6,2.9,4.0,2.445,2.446,9.297,8.5
115.0,2028352.536,-1.6,1.6,2.9,4.0,2.448,2.437,9.306,8.466
116.0,2043522.223,-1.6,1.6,2.9,4.0,2.439,2.433,9.277,8.451
117.0,2058704.21,-1.6,1.6,2.9,4.0,2.436,2.429,9.265,8.435
118.0,2073930.054,-1.6,1.6,2.9,4.0,2.432,2.444,9.253,8.491
119.0,2089106.977,-1.6,1.6,2.9,4.0,2.447,2.441,9.304,8.481
120.0,2104266.661,-1.6,1.6,2.9,4.0,2.445,2.441,9.294,8.48
121.0,2119436.347,-1.6,1.6,2.9,4.0,2.443,2.438,9.29,8.471
122.0,2134612.362,-1.6,1.6,2.9,4.0,2.442,2.452,9.286,8.52
123.0,2149793.873,-1.6,1.6,2.9,4.0,2.454,2.448,9.324,8.505
124.0,2164926.066,-1.6,1.6,2.9,4.0,2.451,2.441,9.312,8.483
125.0,2180107.184,-1.6,1.6,2.9,4.0,2.443,2.447,9.289,8.502
126.0,2195290.608,-1.6,1.6,2.9,4.0,2.449,2.441,9.308,8.48
127.0,2210449.318,-1.6,1.6,2.9,4.0,2.443,2.435,9.288,8.456
128.0,2225636.327,-1.6,1.6,2.9,4.0,2.439,2.441,9.274,8.477
129.0,2240811.496,-1.6,1.6,2.9,4.0,2.442,2.427,9.285,8.426
130.0,2255987.738,-1.6,1.6,2.9,4.0,2.43,2.43,9.244,8.437
131.0,2271158.371,-1.6,1.6,2.9,4.0,2.433,2.429,9.254,8.435
132.0,2286332.25,-1.6,1.6,2.9,4.0,2.432,2.423,9.253,8.415
133.0,2301514.317,-1.6,1.6,2.9,4.0,2.425,2.421,9.229,8.41
134.0,2316706.238,-1.6,1.6,2.9,4.0,2.423,2.412,9.222,8.371
135.0,2331930.25,-1.6,1.6,2.9,4.0,2.415,2.423,9.197,8.413
136.0,2347142.235,-1.6,1.6,2.9,4.0,2.426,2.423,9.232,8.41
137.0,2362332.638,-1.6,1.6,2.9,4.0,2.425,2.424,9.23,8.413
138.0,2377541.956,-1.6,1.6,2.9,4.0,2.425,2.42,9.23,8.399
139.0,2392743.651,-1.6,1.6,2.9,4.0,2.422,2.414,9.22,8.377
140.0,2407973.182,-1.6,1.6,2.9,4.0,2.417,2.421,9.204,8.405
141.0,2423145.895,-1.6,1.6,2.9,4.0,2.424,2.42,9.225,8.4
142.0,2438346.1,-1.6,1.6,2.9,4.0,2.422,2.424,9.219,8.413
143.0,2453531.915,-1.6,1.6,2.9,4.0,2.424,2.424,9.226,8.411
144.0,2468680.215,-1.6,1.6,2.9,4.0,2.424,2.411,9.224,8.365
145.0,2483708.351,-1.6,1.6,2.9,4.0,2.412,2.415,9.181,8.379
146.0,2498884.537,-1.6,1.6,2.9,4.0,2.416,2.42,9.197,8.398
147.0,2514089.807,-1.6,1.6,2.9,4.0,2.421,2.418,9.213,8.391
148.0,2529263.202,-1.6,1.6,2.9,4.0,2.42,2.434,9.21,8.449
149.0,2544476.575,-1.6,1.6,2.9,4.0,2.434,2.417,9.258,8.389
150.0,2559666.418,-1.6,1.6,2.9,4.0,2.417,2.412,9.203,8.368
151.0,2574865.233,-1.6,1.6,2.9,4.0,2.412,2.409,9.185,8.36
152.0,2590091.893,-1.6,1.6,2.9,4.0,2.41,2.421,9.179,8.399
153.0,2605351.327,-1.6,1.6,2.9,4.0,2.422,2.407,9.221,8.35
154.0,2620581.435,-1.6,1.6,2.9,4.0,2.406,2.407,9.167,8.35
155.0,2635793.051,-1.6,1.6,2.9,4.0,2.408,2.402,9.171,8.331
156.0,2650978.778,-1.6,1.6,2.9,4.0,2.402,2.398,9.151,8.316
157.0,2666174.051,-1.6,1.6,2.9,4.0,2.399,2.401,9.141,8.326
158.0,2681415.112,-1.6,1.6,2.9,4.0,2.401,2.404,9.149,8.336
159.0,2696617.931,-1.6,1.6,2.9,4.0,2.404,2.392,9.158,8.293
160.0,2711822.719,-1.6,1.6,2.9,4.0,2.392,2.39,9.119,8.285
161.0,2727026.185,-1.6,1.6,2.9,4.0,2.392,2.399,9.118,8.32
162.0,2742276.183,-1.6,1.6,2.9,4.0,2.399,2.4,9.143,8.322
163.0,2757531.284,-1.6,1.6,2.9,4.0,2.4,2.397,9.146,8.312
164.0,2772731.178,-1.6,1.6,2.9,4.0,2.399,2.396,9.139,8.309
165.0,2787988.45,-1.6,1.6,2.9,4.0,2.396,2.39,9.131,8.284
166.0,2803190.98,-1.6,1.6,2.9,4.0,2.391,2.393,9.112,8.295
167.0,2818417.49,-1.6,1.6,2.9,4.0,2.394,2.398,9.123,8.312
168.0,2833663.585,-1.6,1.6,2.9,4.0,2.398,2.393,9.139,8.295
169.0,2848899.824,-1.6,1.6,2.9,4.0,2.393,2.394,9.121,8.301
170.0,2864203.927,-1.6,1.6,2.9,4.0,2.394,2.389,9.125,8.28
171.0,2879464.899,-1.6,1.6,2.9,4.0,2.391,2.409,9.117,8.356
172.0,2894684.737,-1.6,1.6,2.9,4.0,2.41,2.413,9.177,8.371
173.0,2909874.684,-1.6,1.6,2.9,4.0,2.413,2.394,9.187,8.305
174.0,2925105.227,-1.6,1.6,2.9,4.0,2.393,2.391,9.121,8.288
175.0,2940320.647,-1.6,1.6,2.9,4.0,2.392,2.391,9.116,8.286
176.0,2955545.418,-1.6,1.6,2.9,4.0,2.391,2.385,9.114,8.266
177.0,2970782.674,-1.6,1.6,2.9,4.0,2.387,2.388,9.1,8.278
178.0,2986030.162,-1.6,1.6,2.9,4.0,2.388,2.392,9.104,8.288
179.0,3001235.537,-1.6,1.6,2.9,4.0,2.392,2.387,9.118,8.274
180.0,3016454.288,-1.6,1.6,2.9,4.0,2.388,2.388,9.104,8.277
181.0,3031694.566,-1.6,1.6,2.9,4.0,2.388,2.39,9.104,8.285
182.0,3046933.1,-1.6,1.6,2.9,4.0,2.389,2.384,9.108,8.256
183.0,3062141.743,-1.6,1.6,2.9,4.0,2.385,2.383,9.091,8.257
184.0,3070945.667,-1.6,1.6,2.9,4.0,1.819,1.825,6.833,6.198
185.0,3086061.226,-1.6,1.6,2.9,4.0,2.388,2.38,9.109,8.246
186.0,3101283.978,-1.6,1.6,2.9,4.0,2.38,2.383,9.078,8.257
187.0,3116505.87,-1.6,1.6,2.9,4.0,2.383,2.378,9.09,8.241
188.0,3131773.626,-1.6,1.6,2.9,4.0,2.38,2.374,9.079,8.223
189.0,3147028.903,-1.6,1.6,2.9,4.0,2.376,2.383,9.063,8.257
190.0,3162275.789,-1.6,1.6,2.9,4.0,2.383,2.377,9.088,8.236
191.0,3177520.049,-1.6,1.6,2.9,4.0,2.378,2.379,9.07,8.244
192.0,3192758.745,-1.6,1.6,2.9,4.0,2.379,2.381,9.076,8.251
193.0,3208029.447,-1.606,1.6,2.9,4.0,2.383,2.387,9.087,8.272
194.0,3223272.996,-1.6,1.6,2.9,4.0,2.387,2.385,9.102,8.265
195.0,3238540.893,-1.6,1.6,2.9,4.0,2.385,2.385,9.096,8.263
196.0,3253746.25,-1.6,1.6,2.9,4.0,2.386,2.392,9.095,8.29
197.0,3268980.949,-1.6,1.6,2.9,4.0,2.393,2.392,9.12,8.292
198.0,3284202.518,-1.6,1.6,2.9,4.0,2.393,2.391,9.12,8.288
199.0,3299443.058,-1.6,1.6,2.9,4.0,2.39,2.384,9.112,8.262
200.0,3308242.804,-1.6,1.6,2.9,4.0,1.819,1.825,6.829,6.194
201.0,3323520.29,-1.6,1.6,2.9,4.0,2.388,2.383,9.109,8.255
202.0,3338749.044,-1.6,1.6,2.9,4.0,2.384,2.382,9.09,8.253
203.0,3353979.318,-1.6,1.6,2.9,4.0,2.383,2.381,9.086,8.25
204.0,3369229.984,-1.6,1.6,2.899,4.0,2.381,2.381,9.081,8.253
205.0,3384464.457,-1.6,1.6,2.9,4.0,2.382,2.378,9.082,8.237
206.0,3393225.697,-1.6,1.6,2.9,4.0,1.811,1.815,6.801,6.161
207.0,3408559.778,-1.6,1.6,2.9,4.0,2.381,2.38,9.087,8.246
208.0,3423822.293,-1.6,1.6,2.9,4.0,2.382,2.379,9.084,8.244
209.0,3439074.337,-1.6,1.6,2.9,4.0,2.38,2.376,9.077,8.232
210.0,3454291.733,-1.6,1.6,2.9,4.0,2.377,2.376,9.069,8.233
211.0,3469535.845,-1.6,1.6,2.9,4.0,2.376,2.376,9.065,8.231
212.0,3484817.102,-1.6,1.6,2.9,4.0,2.377,2.375,9.067,8.227
213.0,3500066.831,-1.6,1.6,2.9,4.0,2.376,2.375,9.064,8.229
214.0,3515295.367,-1.6,1.6,2.9,4.0,2.376,2.376,9.064,8.231
215.0,3530576.47,-1.6,1.6,2.9,4.0,2.376,2.379,9.065,8.243
216.0,3545832.73,-1.6,1.6,2.9,4.0,2.38,2.374,9.078,8.223
217.0,3561082.073,-1.6,1.6,2.9,4.0,2.375,2.368,9.06,8.202
218.0,3576347.927,-1.6,1.6,2.9,4.0,2.369,2.372,9.039,8.215
219.0,3591611.997,-1.6,1.6,2.9,4.0,2.373,2.376,9.053,8.229
220.0,3606880.089,-1.6,1.6,2.9,4.0,2.376,2.371,9.065,8.211
221.0,3622090.227,-1.6,1.6,2.9,4.0,2.371,2.37,9.049,8.211
222.0,3637342.14,-1.6,1.6,2.9,4.0,2.371,2.371,9.047,8.211
223.0,3652569.698,-1.6,1.6,2.9,4.0,2.371,2.369,9.046,8.205
224.0,3667837.911,-1.6,1.6,2.9,4.0,2.369,2.372,9.039,8.216
225.0,3683142.3,-1.6,1.6,2.9,4.0,2.372,2.392,9.049,8.283
226.0,3691877.489,-1.6,1.6,2.9,4.0,1.818,1.797,6.823,6.093
227.0,3707173.251,-1.6,1.6,2.9,4.0,2.368,2.368,9.041,8.2
228.0,3722441.747,-1.6,1.6,2.9,4.0,2.369,2.369,9.041,8.202
229.0,3737700.496,-1.6,1.6,2.9,4.0,2.369,2.366,9.041,8.193
230.0,3752962.405,-1.6,1.6,2.9,4.0,2.366,2.367,9.031,8.195
231.0,3768217.705,-1.6,1.6,2.9,4.0,2.368,2.368,9.036,8.199
232.0,3783492.899,-1.6,1.6,2.9,4.0,2.368,2.366,9.037,8.192
233.0,3798751.271,-1.6,1.6,2.9,4.0,2.366,2.368,9.031,8.198
234.0,3814003.525,-1.6,1.6,2.9,4.0,2.369,2.363,9.038,8.181
235.0,3829232.991,-1.6,1.6,2.9,4.0,2.364,2.361,9.023,8.175
236.0,3844490.634,-1.6,1.6,2.9,4.0,2.361,2.356,9.013,8.156
237.0,3859751.003,-1.6,1.6,2.9,4.0,2.357,2.365,9.001,8.189
238.0,3874990.902,-1.6,1.6,2.9,4.0,2.365,2.362,9.026,8.178
239.0,3883677.375,-1.6,1.6,2.9,4.0,1.791,1.802,6.732,6.111
240.0,3899022.328,-1.6,1.6,2.9,4.0,2.372,2.36,9.056,8.171
241.0,3914288.183,-1.6,1.6,2.9,4.0,2.362,2.362,9.016,8.179
242.0,3929546.213,-1.6,1.6,2.9,4.0,2.363,2.355,9.018,8.154
243.0,3944821.367,-1.6,1.6,2.9,4.0,2.356,2.364,8.998,8.186
244.0,3960081.97,-1.6,1.6,2.9,4.0,2.365,2.36,9.025,8.171
245.0,3975337.072,-1.6,1.6,2.9,4.0,2.361,2.361,9.013,8.178
246.0,3990561.981,-1.6,1.6,2.9,4.0,2.363,2.359,9.019,8.167
247.0,4005820.801,-1.6,1.6,2.9,4.0,2.359,2.36,9.009,8.171
248.0,4021142.034,-1.6,1.6,2.9,4.0,2.361,2.361,9.013,8.175
249.0,4036410.652,-1.6,1.6,2.9,4.0,2.362,2.359,9.017,8.169
250.0,4051693.692,-1.6,1.6,2.9,4.0,2.36,2.358,9.009,8.163
251.0,4066946.669,-1.6,1.6,2.9,4.0,2.36,2.361,9.008,8.173
252.0,4082205.027,-1.6,1.6,2.9,4.0,2.362,2.363,9.016,8.184
253.0,4097504.495,-1.6,1.6,2.9,4.0,2.364,2.356,9.023,8.156
254.0,4112769.294,-1.6,1.6,2.9,4.0,2.357,2.353,8.998,8.146
255.0,4128041.528,-1.6,1.6,2.9,4.0,2.353,2.353,8.986,8.143
256.0,4143293.36,-1.6,1.6,2.9,4.0,2.353,2.35,8.987,8.133
257.0,4158532.295,-1.6,1.6,2.9,4.0,2.351,2.349,8.979,8.13
258.0,4173729.054,-1.6,1.6,2.9,4.0,2.349,2.355,8.973,8.15
259.0,4188991.791,-1.6,1.6,2.9,4.0,2.355,2.356,8.993,8.154
260.0,4204245.942,-1.6,1.6,2.9,4.0,2.357,2.354,8.999,8.148
261.0,4219482.638,-1.6,1.6,2.9,4.0,2.355,2.352,8.991,8.14
262.0,4234792.828,-1.6,1.6,2.9,4.0,2.353,2.362,8.987,8.176
263.0,4250056.36,-1.6,1.6,2.9,4.0,2.363,2.359,9.019,8.165
264.0,4265328.937,-1.6,1.6,2.9,4.0,2.359,2.354,9.004,8.146
265.0,4280572.58,-1.6,1.6,2.9,4.0,2.354,2.352,8.989,8.139
266.0,4295680.319,-1.6,1.6,2.9,4.0,2.352,2.345,8.983,8.116
267.0,4310941.373,-1.6,1.6,2.9,4.0,2.346,2.343,8.963,8.11
268.0,4319495.212,-1.6,1.6,2.9,4.0,1.759,1.774,6.618,6.009
269.0,4334786.37,-1.6,1.6,2.9,4.0,2.358,2.35,9.003,8.133
270.0,4350062.843,-1.6,1.6,2.9,4.0,2.352,2.355,8.981,8.153
271.0,4365327.67,-1.6,1.6,2.9,4.0,2.356,2.359,8.995,8.166
272.0,4380609.828,-1.6,1.6,2.9,4.0,2.359,2.352,9.005,8.141
273.0,4395892.371,-1.6,1.6,2.9,4.0,2.353,2.357,8.985,8.157
274.0,4411153.234,-1.6,1.6,2.9,4.0,2.358,2.349,9.001,8.127
275.0,4426369.671,-1.6,1.6,2.9,4.0,2.349,2.346,8.97,8.119
276.0,4441644.344,-1.6,1.6,2.9,4.0,2.347,2.349,8.964,8.129
277.0,4456894.569,-1.6,1.6,2.9,4.0,2.35,2.35,8.976,8.134
278.0,4472154.59,-1.6,1.6,2.9,4.0,2.351,2.351,8.977,8.134
279.0,4487412.679,-1.6,1.6,2.9,4.0,2.351,2.348,8.976,8.125
280.0,4502616.141,-1.6,1.6,2.9,4.0,2.35,2.348,8.971,8.128
281.0,4517848.731,-1.6,1.6,2.9,4.0,2.349,2.346,8.971,8.121
282.0,4533102.113,-1.6,1.6,2.9,4.0,2.347,2.342,8.965,8.103
283.0,4548367.639,-1.6,1.6,2.9,4.0,2.342,2.345,8.949,8.116
284.0,4563642.164,-1.6,1.6,2.9,4.0,2.346,2.345,8.961,8.115
285.0,4578917.939,-1.6,1.6,2.9,4.0,2.346,2.349,8.961,8.13
286.0,4594199.083,-1.6,1.6,2.9,4.0,2.35,2.354,8.974,8.149
287.0,4609412.974,-1.6,1.6,2.9,4.0,2.356,2.358,8.994,8.161
288.0,4624702.871,-1.6,1.6,2.9,4.0,2.358,2.343,9.0,8.109
289.0,4639970.283,-1.6,1.6,2.9,4.0,2.344,2.337,8.954,8.086
290.0,4655248.794,-1.6,1.6,2.9,4.0,2.338,2.334,8.934,8.073
291.0,4670539.017,-1.6,1.6,2.9,4.0,2.335,2.349,8.925,8.127
292.0,4685780.979,-1.6,1.6,2.9,4.0,2.35,2.349,8.974,8.131
293.0,4701026.334,-1.6,1.6,2.9,4.0,2.349,2.344,8.971,8.111
294.0,4716295.11,-1.6,1.6,2.9,4.0,2.344,2.341,8.954,8.102
295.0,4731559.227,-1.6,1.6,2.9,4.0,2.342,2.338,8.945,8.089
296.0,4746838.563,-1.6,1.6,2.9,4.0,2.339,2.339,8.937,8.093
297.0,4762053.353,-1.6,1.6,2.9,4.0,2.34,2.338,8.938,8.089
298.0,4777307.012,-1.6,1.6,2.9,4.0,2.337,2.334,8.932,8.073
299.0,4792583.147,-1.622,1.6,2.9,4.0,2.335,2.334,8.924,8.074
300.0,4807832.817,-1.6,1.6,2.9,4.0,2.334,2.334,8.921,8.072
301.0,4823110.744,-1.6,1.6,2.9,4.0,2.334,2.328,8.921,8.051
302.0,4838429.348,-1.6,1.6,2.9,4.0,2.327,2.333,8.898,8.066
303.0,4853647.64,-1.6,1.6,2.9,4.0,2.335,2.339,8.923,8.094
304.0,4868813.993,-1.6,1.6,2.9,4.0,2.34,2.341,8.939,8.1
305.0,4884039.184,-1.6,1.6,2.9,4.0,2.341,2.336,8.942,8.083
306.0,4899208.107,-1.6,1.6,2.9,4.0,2.338,2.337,8.933,8.088
307.0,4914450.304,-1.6,1.6,2.9,4.0,2.337,2.33,8.93,8.058
308.0,4929703.894,-1.6,1.6,2.9,4.0,2.33,2.329,8.906,8.056
309.0,4944952.612,-1.6,1.6,2.9,4.0,2.329,2.332,8.904,8.068
310.0,4960194.627,-1.6,1.6,2.9,4.0,2.333,2.326,8.917,8.046
311.0,4975465.878,-1.6,1.6,2.9,4.0,2.326,2.329,8.895,8.053
312.0,4990717.689,-1.6,1.6,2.9,4.0,2.33,2.332,8.907,8.066
313.0,5005952.128,-1.6,1.6,2.9,4.0,2.333,2.332,8.915,8.064
314.0,5021200.222,-1.6,1.6,2.9,4.0,2.331,2.325,8.911,8.039
315.0,5036447.516,-1.6,1.6,2.9,4.0,2.326,2.325,8.892,8.04
316.0,5051680.059,-1.6,1.6,2.9,4.0,2.325,2.322,8.891,8.028
317.0,5066924.634,-1.6,1.6,2.9,4.0,2.322,2.319,8.881,8.017
318.0,5082158.144,-1.6,1.6,2.9,4.0,2.32,2.324,8.873,8.038
319.0,5097402.444,-1.6,1.6,2.9,4.0,2.326,2.329,8.89,8.057
320.0,5112623.73,-1.6,1.6,2.9,4.0,2.329,2.336,8.902,8.08
321.0,5127791.111,-1.6,1.6,2.9,4.0,2.337,2.336,8.928,8.081
322.0,5143015.807,-1.6,1.6,2.9,4.0,2.335,2.325,8.924,8.039
323.0,5158245.689,-1.6,1.6,2.9,4.0,2.325,2.32,8.888,8.021
324.0,5173485.558,-1.6,1.6,2.9,4.0,2.321,2.319,8.875,8.015
325.0,5188722.3,-1.6,1.6,2.9,4.0,2.32,2.33,8.873,8.058
326.0,5203941.632,-1.6,1.6,2.9,4.0,2.332,2.335,8.912,8.079
327.0,5219139.016,-1.6,1.6,2.9,4.0,2.335,2.331,8.922,8.065
328.0,5234306.249,-1.6,1.6,2.9,4.0,2.332,2.329,8.911,8.056
329.0,5249507.887,-1.6,1.6,2.9,4.0,2.329,2.323,8.902,8.033
330.0,5264734.082,-1.6,1.6,2.9,4.0,2.323,2.318,8.882,8.014
331.0,5279899.102,-1.6,1.6,2.9,4.0,2.319,2.324,8.865,8.037
332.0,5295112.148,-1.6,1.6,2.9,4.0,2.326,2.328,8.89,8.051
333.0,5310318.103,-1.6,1.6,2.9,4.0,2.328,2.327,8.898,8.05
334.0,5325545.214,-1.6,1.6,2.9,4.0,2.328,2.328,8.898,8.053
335.0,5340759.705,-1.6,1.6,2.9,4.0,2.328,2.315,8.896,8.003
336.0,5356045.596,-1.6,1.6,2.9,4.0,2.315,2.31,8.854,7.983
337.0,5364351.965,-1.6,1.6,2.9,4.0,1.712,1.712,6.446,5.787
338.0,5379724.098,-1.6,1.6,2.9,4.0,2.308,2.305,8.839,7.963
339.0,5388039.994,-1.6,1.6,2.9,4.0,1.709,1.719,6.438,5.811
340.0,5403358.411,-1.6,1.6,2.9,4.0,2.315,2.307,8.859,7.971
341.0,5418655.653,-1.6,1.6,2.9,4.0,2.309,2.316,8.836,8.004
342.0,5433873.01,-1.6,1.6,2.9,4.0,2.317,2.316,8.861,8.004
343.0,5449060.797,-1.622,1.6,2.9,4.0,2.316,2.312,8.86,7.993
344.0,5464317.256,-1.6,1.6,2.9,4.0,2.313,2.319,8.849,8.015
345.0,5479543.856,-1.6,1.6,2.9,4.0,2.318,2.308,8.867,7.975
346.0,5494847.718,-1.6,1.6,2.9,4.0,2.308,2.315,8.831,7.998
347.0,5510060.848,-1.6,1.6,2.9,4.0,2.316,2.312,8.849,7.989
348.0,5525290.341,-1.6,1.6,2.9,4.0,2.313,2.314,8.847,7.999
349.0,5540549.549,-1.6,1.6,2.9,4.0,2.315,2.306,8.853,7.969
350.0,5555772.753,-1.6,1.6,2.9,4.0,2.307,2.308,8.828,7.976
351.0,5571002.624,-1.6,1.6,2.9,4.0,2.308,2.305,8.83,7.964
352.0,5579294.52,-1.6,1.6,2.9,4.0,1.708,1.712,6.436,5.786
353.0,5594668.215,-1.6,1.6,2.9,4.0,2.309,2.309,8.84,7.98
354.0,5609939.626,-1.6,1.6,2.9,4.0,2.311,2.313,8.84,7.992
355.0,5625225.151,-1.6,1.6,2.9,4.0,2.313,2.312,8.848,7.989
356.0,5640467.865,-1.6,1.6,2.9,4.0,2.314,2.318,8.85,8.016
357.0,5648877.096,-1.6,1.6,2.9,4.0,1.732,1.737,6.519,5.88
358.0,5664180.824,-1.6,1.6,2.9,4.0,2.323,2.316,8.885,8.007
359.0,5679437.838,-1.6,1.6,2.9,4.0,2.317,2.315,8.863,8.001
360.0,5694667.752,-1.6,1.6,2.9,4.0,2.316,2.324,8.858,8.037
361.0,5709903.119,-1.6,1.6,2.9,4.0,2.325,2.323,8.888,8.032
362.0,5725141.269,-1.6,1.6,2.9,4.0,2.322,2.315,8.878,8.003
363.0,5740372.522,-1.6,1.6,2.9,4.0,2.316,2.317,8.855,8.012
364.0,5755592.13,-1.6,1.6,2.9,4.0,2.318,2.316,8.864,8.007
365.0,5770835.796,-1.6,1.6,2.9,4.0,2.316,2.31,8.858,7.987
366.0,5786088.395,-1.6,1.6,2.9,4.0,2.311,2.309,8.84,7.981
367.0,5801329.354,-1.6,1.6,2.9,4.0,2.311,2.314,8.839,7.995
368.0,5816569.219,-1.6,1.6,2.9,4.0,2.315,2.312,8.852,7.994
369.0,5831806.694,-1.6,1.6,2.9,4.0,2.312,2.305,8.843,7.965
370.0,5847059.765,-1.6,1.6,2.9,4.0,2.305,2.298,8.821,7.94
371.0,5862322.794,-1.6,1.6,2.9,4.0,2.298,2.29,8.797,7.907
372.0,5877574.231,-1.6,1.6,2.9,4.0,2.291,2.298,8.776,7.938
373.0,5892814.553,-1.6,1.6,2.9,4.0,2.298,2.297,8.796,7.936
374.0,5901092.547,-1.6,1.6,2.9,4.0,1.7,1.711,6.404,5.784
375.0,5916398.948,-1.6,1.6,2.899,4.0,2.308,2.293,8.835,7.922
376.0,5931676.544,-1.6,1.6,2.9,4.0,2.294,2.29,8.786,7.908
377.0,5946977.256,-1.6,1.6,2.9,4.0,2.29,2.294,8.773,7.921
378.0,5962244.893,-1.6,1.6,2.9,4.0,2.295,2.298,8.787,7.938
379.0,5977537.043,-1.6,1.6,2.9,4.0,2.298,2.303,8.799,7.959
380.0,5992807.86,-1.6,1.6,2.9,4.0,2.303,2.299,8.814,7.941
381.0,6008037.62,-1.6,1.6,2.9,4.0,2.299,2.295,8.798,7.926
382.0,6023268.228,-1.6,1.6,2.9,4.0,2.295,2.291,8.785,7.913
383.0,6038495.169,-1.6,1.6,2.9,4.0,2.291,2.288,8.774,7.9
384.0,6053740.333,-1.6,1.6,2.9,4.0,2.289,2.297,8.766,7.935
385.0,6068937.92,-1.6,1.6,2.9,4.0,2.297,2.291,8.793,7.913
386.0,6084181.124,-1.6,1.6,2.9,4.0,2.293,2.302,8.779,7.953
387.0,6099401.055,-1.6,1.6,2.9,4.0,2.307,2.299,8.823,7.944
388.0,6114606.478,-1.6,1.6,2.9,4.0,2.3,2.297,8.798,7.938
389.0,6129830.673,-1.6,1.6,2.9,4.0,2.298,2.299,8.797,7.941
390.0,6145048.183,-1.6,1.6,2.9,4.0,2.3,2.299,8.803,7.941
391.0,6160287.89,-1.6,1.6,2.9,4.0,2.299,2.297,8.799,7.933
392.0,6175500.539,-1.6,1.6,2.9,4.0,2.298,2.296,8.796,7.932
393.0,6190703.95,-1.6,1.6,2.9,4.0,2.297,2.296,8.79,7.934
394.0,6205889.347,-1.6,1.6,2.9,4.0,2.297,2.294,8.791,7.926
395.0,6221075.531,-1.6,1.6,2.9,4.0,2.295,2.295,8.785,7.929
396.0,6236272.652,-1.6,1.6,2.9,4.0,2.295,2.292,8.785,7.917
397.0,6251451.232,-1.6,1.6,2.9,4.0,2.292,2.29,8.776,7.909
398.0,6266639.467,-1.6,1.6,2.9,4.0,2.29,2.3,8.768,7.946
399.0,6281873.489,-1.6,1.6,2.9,4.0,2.301,2.297,8.805,7.935
400.0,6297049.278,-1.6,1.6,2.9,4.0,2.297,2.298,8.793,7.94
401.0,6312202.589,-1.6,1.6,2.9,4.0,2.298,2.283,8.795,7.892
402.0,6327418.507,-1.6,1.6,2.9,4.0,2.282,2.283,8.744,7.881
403.0,6342634.249,-1.6,1.6,2.9,4.0,2.285,2.295,8.754,7.931
404.0,6357816.281,-1.6,1.6,2.9,4.0,2.296,2.295,8.788,7.929
405.0,6366085.302,-1.6,1.6,2.9,4.0,1.701,1.706,6.407,5.769
406.0,6381400.544,-1.6,1.6,2.9,4.0,2.3,2.29,8.806,7.909
407.0,6396657.992,-1.6,1.6,2.9,4.0,2.292,2.291,8.777,7.911
408.0,6411923.818,-1.6,1.6,2.9,4.0,2.292,2.286,8.778,7.898
409.0,6427162.244,-1.6,1.6,2.9,4.0,2.288,2.293,8.761,7.922
410.0,6442376.792,-1.6,1.6,2.9,4.0,2.294,2.294,8.782,7.928
411.0,6457603.503,-1.6,1.6,2.9,4.0,2.294,2.289,8.783,7.906
412.0,6472848.245,-1.6,1.6,2.9,4.0,2.289,2.284,8.764,7.886
413.0,6488050.165,-1.6,1.6,2.9,5.334,2.285,2.286,8.765,7.896
414.0,6503292.508,-1.6,1.6,2.9,4.0,2.287,2.285,8.757,7.895
415.0,6518473.118,-1.6,1.6,2.9,4.0,2.285,2.279,8.75,7.87
416.0,6533719.21,-1.6,1.6,2.9,4.0,2.279,2.273,8.733,7.846
417.0,6548979.014,-1.6,1.6,2.9,4.0,2.273,2.267,8.713,7.824
418.0,6564264.874,-1.6,1.6,2.9,4.0,2.267,2.269,8.693,7.827
419.0,6579527.368,-1.6,1.6,2.9,4.0,2.27,2.271,8.701,7.838
420.0,6594762.291,-1.6,1.6,2.9,4.0,2.272,2.273,8.71,7.845
421.0,6610001.684,-1.6,1.6,2.9,4.0,2.273,2.27,8.712,7.835
422.0,6625253.605,-1.6,1.6,2.9,4.0,2.27,2.264,8.703,7.812
423.0,6640516.446,-1.6,1.6,2.9,4.0,2.265,2.261,8.683,7.799
424.0,6655814.036,-1.6,1.6,2.9,4.0,2.262,2.267,8.675,7.822
425.0,6671058.058,-1.6,1.6,2.9,4.0,2.269,2.275,8.697,7.855
426.0,6679195.367,-1.6,1.6,2.9,4.0,1.67,1.679,6.296,5.669
427.0,6694476.294,-1.6,1.6,2.9,4.0,2.283,2.267,8.749,7.824
428.0,6709714.985,-1.6,1.6,2.9,4.0,2.268,2.269,8.695,7.837
429.0,6724945.876,-1.6,1.6,2.9,4.0,2.269,2.264,8.699,7.81
430.0,6740205.264,-1.6,1.6,2.9,4.0,2.264,2.264,8.683,7.811
431.0,6755434.275,-1.6,1.6,2.9,4.0,2.266,2.267,8.686,7.824
432.0,6770646.271,-1.6,1.6,2.9,4.0,2.267,2.262,8.692,7.806
433.0,6785875.43,-1.6,1.6,2.9,4.0,2.263,2.26,8.678,7.797
434.0,6801140.401,-1.6,1.6,2.9,4.0,2.261,2.257,8.672,7.784
435.0,6816406.105,-1.6,1.6,2.9,4.0,2.259,2.252,8.667,7.766
436.0,6831679.538,-1.6,1.6,2.9,4.0,2.256,2.26,8.657,7.798
437.0,6846953.47,-1.6,1.6,2.9,4.0,2.263,2.258,8.678,7.787
438.0,6862196.824,-1.6,1.6,2.9,4.0,2.261,2.257,8.672,7.783
439.0,6877409.686,-1.6,1.6,2.9,4.0,2.259,2.254,8.666,7.774
440.0,6892669.217,-1.599,1.6,2.9,4.0,2.256,2.249,8.655,7.755
441.0,6907968.01,-1.6,1.6,2.9,4.0,2.252,2.255,8.642,7.773
442.0,6923248.145,-1.6,1.6,2.9,4.0,2.259,2.257,8.665,7.788
443.0,6938466.311,-1.6,1.6,2.9,4.0,2.26,2.262,8.667,7.805
444.0,6953703.035,-1.6,1.6,2.9,4.0,2.265,2.258,8.684,7.79
445.0,6968956.169,-1.6,1.6,2.9,4.0,2.26,2.256,8.669,7.781
446.0,6984263.352,-1.6,1.6,2.9,4.0,2.258,2.252,8.662,7.765
447.0,6999559.229,-1.6,1.6,2.9,4.0,2.256,2.26,8.655,7.796
448.0,7014862.747,-1.6,1.6,2.9,4.0,2.263,2.265,8.679,7.815
449.0,7030133.666,-1.6,1.6,2.9,4.0,2.268,2.267,8.694,7.823
450.0,7045391.415,-1.6,1.6,2.9,4.0,2.27,2.263,8.699,7.81
451.0,7053413.258,-1.6,1.6,2.9,4.0,1.649,1.648,6.221,5.558
452.0,7068741.09,-1.6,1.6,2.9,4.0,2.263,2.245,8.684,7.741
453.0,7076669.689,-1.6,1.6,2.9,4.0,1.624,1.632,6.131,5.499
454.0,7092036.221,-1.6,1.6,2.9,4.0,2.257,2.255,8.664,7.773
455.0,7107336.792,-1.6,1.6,2.9,4.0,2.259,2.256,8.663,7.779
456.0,7122604.749,-1.6,1.6,2.9,4.0,2.259,2.257,8.665,7.785
457.0,7137886.703,-1.6,1.6,2.9,4.0,2.26,2.254,8.668,7.774
458.0,7153169.143,-1.6,1.6,2.9,4.0,2.256,2.251,8.655,7.76
459.0,7168454.642,-1.6,1.6,2.9,4.0,2.253,2.257,8.643,7.783
460.0,7183701.607,-1.6,1.6,2.9,4.0,2.26,2.257,8.668,7.785
461.0,7198941.776,-1.6,1.6,2.9,4.0,2.259,2.252,8.665,7.766
462.0,7214167.268,-1.6,1.6,2.9,4.0,2.254,2.254,8.648,7.776
463.0,7229398.47,-1.6,1.6,2.9,4.0,2.257,2.255,8.657,7.78
464.0,7244637.468,-1.6,1.6,2.9,4.0,2.258,2.254,8.661,7.774
465.0,7259968.703,-1.6,1.6,2.9,4.0,2.257,2.26,8.657,7.801
466.0,7275200.988,-1.6,1.6,2.9,4.0,2.263,2.256,8.678,7.785
467.0,7290440.442,-1.6,1.6,2.9,4.0,2.259,2.252,8.663,7.771
468.0,7305682.219,-1.6,1.6,2.9,4.0,2.255,2.253,8.651,7.772
469.0,7320839.604,-1.6,1.6,2.9,4.0,2.256,2.251,8.652,7.764
470.0,7336077.107,-1.6,1.6,2.9,4.0,2.253,2.247,8.644,7.75
471.0,7344055.497,-1.6,1.6,2.9,4.0,1.634,1.644,6.168,5.546
472.0,7359422.536,-1.6,1.6,2.9,4.0,2.26,2.246,8.673,7.743
473.0,7374695.732,-1.6,1.6,2.9,4.0,2.25,2.25,8.632,7.759
474.0,7389974.218,-1.6,1.6,2.9,4.0,2.253,2.251,8.643,7.762
475.0,7405231.967,-1.6,1.6,2.9,4.0,2.254,2.252,8.645,7.767
476.0,7420485.645,-1.6,1.6,2.9,4.0,2.255,2.252,8.648,7.765
477.0,7428465.027,-1.6,1.6,2.9,4.0,1.638,1.641,6.182,5.532
478.0,7443806.094,-1.6,1.6,2.898,4.0,2.256,2.243,8.66,7.731
479.0,7459068.939,-1.6,1.6,2.9,4.0,2.245,2.243,8.619,7.731
480.0,7474322.969,-1.6,1.6,2.9,4.0,2.246,2.244,8.62,7.736
481.0,7489566.18,-1.6,1.6,2.9,4.0,2.247,2.247,8.623,7.748
482.0,7504785.151,-1.6,1.6,2.9,4.0,2.25,2.248,8.632,7.754
483.0,7519943.131,-1.6,1.6,2.9,4.0,2.251,2.242,8.636,7.734
484.0,7535146.557,-1.6,1.6,2.9,4.0,2.245,2.245,8.615,7.741
485.0,7550374.33,-1.6,1.6,2.9,4.0,2.248,2.252,8.629,7.767
486.0,7565581.298,-1.6,1.6,2.9,4.0,2.254,2.25,8.647,7.763
487.0,7580780.619,-1.6,1.6,2.9,4.0,2.253,2.248,8.642,7.755
488.0,7595996.32,-1.6,1.6,2.9,4.0,2.251,2.246,8.635,7.745
489.0,7611204.042,-1.6,1.6,2.9,4.0,2.249,2.249,8.627,7.755
490.0,7626401.404,-1.6,1.6,2.9,4.0,2.252,2.239,8.64,7.724
491.0,7641599.701,-1.6,1.6,2.9,4.0,2.241,2.244,8.601,7.737
492.0,7656819.358,-1.6,1.6,2.9,4.0,2.247,2.246,8.623,7.746
493.0,7672037.64,-1.6,1.6,2.9,4.0,2.248,2.239,8.626,7.722
494.0,7687296.664,-1.6,1.6,2.9,4.0,2.242,2.247,8.605,7.746
495.0,7695271.402,-1.6,1.6,2.9,4.0,1.636,1.641,6.173,5.533
496.0,7710493.39,-1.6,1.6,2.9,4.0,2.255,2.238,8.653,7.715
497.0,7718428.584,-1.6,1.6,2.9,4.0,1.633,1.634,6.169,5.508
498.0,7733700.498,-1.6,1.6,2.9,4.0,2.25,2.245,8.637,7.743
499.0,7748916.499,-1.6,1.6,2.9,4.0,2.249,2.243,8.629,7.735
500.0,7756851.704,-1.6,1.6,2.9,4.0,1.626,1.633,6.138,5.505
501.0,7772213.404,-1.6,1.6,2.9,4.0,2.253,2.245,8.649,7.737
502.0,7787457.231,-1.6,1.6,2.9,4.0,2.248,2.243,8.626,7.732
503.0,7802722.594,-1.6,1.6,2.9,4.0,2.245,2.239,8.614,7.717
504.0,7817993.121,-1.6,1.6,2.9,4.0,2.242,2.24,8.604,7.721
505.0,7833243.33,-1.6,1.6,2.9,4.0,2.243,2.241,8.608,7.726
506.0,7848496.345,-1.6,1.6,2.9,4.0,2.244,2.241,8.611,7.726
507.0,7863774.144,-1.6,1.6,2.9,4.0,2.243,2.241,8.608,7.727
508.0,7879079.491,-1.6,1.6,2.9,4.0,2.243,2.238,8.61,7.716
509.0,7894314.351,-1.6,1.6,2.9,4.0,2.241,2.238,8.601,7.714
510.0,7909586.416,-1.6,1.6,2.9,4.0,2.241,2.245,8.603,7.741
511.0,7924720.081,-1.6,1.6,2.9,4.0,2.248,2.248,8.623,7.755
512.0,7940023.56,-1.6,1.6,2.9,4.0,2.249,2.236,8.626,7.709
513.0,7955272.832,-1.6,1.6,2.9,4.0,2.24,2.236,8.596,7.708
514.0,7970530.487,-1.6,1.6,2.9,4.0,2.239,2.23,8.593,7.685
515.0,7985795.567,-1.6,1.6,2.9,4.0,2.234,2.235,8.576,7.705
516.0,8001051.753,-1.6,1.6,2.9,4.0,2.238,2.234,8.59,7.699
517.0,8016278.548,-1.6,1.6,2.9,4.0,2.238,2.231,8.59,7.69
518.0,8031469.633,-1.6,1.6,2.898,4.0,2.233,2.237,8.571,7.713
519.0,8039367.703,-1.6,1.6,2.9,4.0,1.619,1.623,6.116,5.467
520.0,8054631.809,-1.6,1.6,2.9,4.0,2.243,2.236,8.612,7.708
521.0,8069883.747,-1.6,1.6,2.9,4.0,2.241,2.237,8.602,7.715
522.0,8085087.225,-1.6,1.6,2.899,4.0,2.24,2.233,8.596,7.698
523.0,8100312.808,-1.6,1.6,2.9,4.0,2.237,2.234,8.59,7.704
524.0,8115485.699,-1.6,1.6,2.9,4.0,2.237,2.234,8.585,7.705
525.0,8130657.35,-1.6,1.6,2.9,4.0,2.237,2.236,8.589,7.712
526.0,8138560.921,-1.6,1.6,2.9,4.0,1.619,1.626,6.113,5.48
527.0,8153899.135,-1.6,1.6,2.9,4.0,2.246,2.234,8.624,7.701
528.0,8169124.779,-1.6,1.6,2.9,4.0,2.238,2.236,8.59,7.708
529.0,8184343.122,-1.6,1.6,2.9,4.0,2.239,2.238,8.593,7.716
530.0,8192272.674,-1.6,1.6,2.9,4.0,1.625,1.631,6.137,5.497
531.0,8207524.674,-1.6,1.6,2.9,4.0,2.247,2.238,8.625,7.715
532.0,8222754.185,-1.6,1.6,2.9,4.0,2.241,2.226,8.6,7.673
533.0,8237939.265,-1.6,1.6,2.9,4.0,2.228,2.221,8.557,7.651
534.0,8253148.306,-1.6,1.6,2.9,4.0,2.223,2.215,8.54,7.629
535.0,8268368.474,-1.6,1.6,2.9,4.0,2.218,2.211,8.522,7.612
536.0,8283601.78,-1.6,1.6,2.9,4.0,2.214,2.207,8.509,7.596
537.0,8298836.828,-1.6,1.6,2.9,4.0,2.21,2.211,8.498,7.615
538.0,8314065.616,-1.6,1.6,2.9,4.0,2.215,2.216,8.513,7.634
539.0,8329273.905,-1.6,1.6,2.9,4.0,2.22,2.22,8.527,7.647
540.0,8344556.233,-1.6,1.6,2.9,4.0,2.223,2.21,8.539,7.61
541.0,8359829.974,-1.6,1.6,2.898,4.0,2.213,2.206,8.506,7.593
542.0,8367533.075,-1.6,1.6,2.9,4.0,1.572,1.583,5.947,5.322
543.0,8382941.799,-1.6,1.6,2.9,4.0,2.22,2.213,8.54,7.623
544.0,8398180.587,-1.6,1.6,2.9,4.0,2.217,2.216,8.52,7.636
545.0,8413350.566,-1.6,1.6,2.9,4.0,2.22,2.218,8.531,7.637
546.0,8428541.293,-1.6,1.6,2.9,4.0,2.221,2.209,8.532,7.608
547.0,8443777.661,-1.6,1.6,2.9,4.0,2.211,2.201,8.5,7.576
548.0,8459039.677,-1.6,1.6,2.9,4.0,2.204,2.199,8.476,7.568
549.0,8474252.06,-1.6,1.6,2.9,4.0,2.204,2.213,8.476,7.624
550.0,8489457.416,-1.6,1.6,2.9,4.0,2.217,2.221,8.52,7.649
551.0,8504661.358,-1.6,1.6,2.9,4.0,2.223,2.215,8.541,7.631
552.0,8519937.166,-1.6,1.6,2.9,4.0,2.218,2.234,8.522,7.685
553.0,8535208.009,-1.6,1.6,2.9,4.0,2.236,2.209,8.584,7.606
554.0,8550454.456,-1.6,1.6,2.9,4.0,2.212,2.211,8.502,7.612
555.0,8565680.632,-1.6,1.6,2.9,4.0,2.215,2.216,8.512,7.633
556.0,8580888.018,-1.6,1.6,2.9,4.0,2.219,2.213,8.525,7.621
557.0,8596093.756,-1.6,1.6,2.9,4.0,2.217,2.215,8.518,7.632
558.0,8611297.959,-1.6,1.6,2.9,4.0,2.218,2.212,8.522,7.619
559.0,8626497.915,-1.6,1.6,2.9,4.0,2.215,2.209,8.51,7.607
560.0,8641732.266,-1.6,1.6,2.9,4.0,2.213,2.214,8.505,7.624
561.0,8656911.311,-1.6,1.6,2.9,4.0,2.217,2.214,8.518,7.627
562.0,8672127.205,-1.6,1.6,2.9,4.0,2.217,2.211,8.518,7.613
563.0,8687290.416,-1.6,1.6,2.898,4.0,2.214,2.215,8.506,7.629
564.0,8702482.132,-1.6,1.6,2.9,4.0,2.219,2.212,8.523,7.618
565.0,8717671.747,-1.6,1.6,2.9,4.0,2.215,2.211,8.509,7.614
566.0,8732867.936,-1.6,1.6,2.9,4.0,2.214,2.213,8.509,7.621
567.0,8748086.74,-1.6,1.6,2.9,4.0,2.216,2.212,8.515,7.619
568.0,8763279.287,-1.6,1.6,2.9,4.0,2.214,2.21,8.508,7.611
569.0,8778441.573,-1.6,1.6,2.9,4.0,2.213,2.21,8.505,7.612
570.0,8793640.472,-1.6,1.6,2.895,4.0,2.213,2.21,8.505,7.611
571.0,8808837.086,-1.6,1.6,2.9,4.0,2.214,2.214,8.506,7.626
572.0,8823980.415,-1.6,1.6,2.9,4.0,2.217,2.211,8.516,7.615
573.0,8839193.301,-1.6,1.6,2.9,4.0,2.213,2.203,8.504,7.586
574.0,8854399.214,-1.6,1.6,2.9,4.0,2.207,2.2,8.484,7.572
575.0,8869399.229,-1.6,1.6,2.9,4.0,2.2,2.204,8.461,7.59
576.0,8884551.685,-1.6,1.6,2.9,4.0,2.21,2.199,8.493,7.57
577.0,8899786.127,-1.6,1.6,2.9,4.0,2.202,2.2,8.468,7.576
578.0,8915017.615,-1.6,1.6,2.897,4.0,2.203,2.206,8.471,7.596
579.0,8930227.823,-1.6,1.6,2.9,4.0,2.208,2.199,8.49,7.572
580.0,8945455.255,-1.6,1.6,2.9,4.0,2.202,2.204,8.469,7.589
581.0,8960648.03,-1.6,1.6,2.9,4.0,2.207,2.204,8.484,7.59
582.0,8975824.45,-1.6,1.6,2.9,4.0,2.207,2.207,8.484,7.601
583.0,8990957.02,-1.6,1.6,2.9,4.0,2.21,2.207,8.495,7.602
584.0,9006132.674,-1.6,1.6,2.9,4.0,2.208,2.201,8.488,7.578
585.0,9021291.201,-1.6,1.6,2.9,4.0,2.205,2.199,8.477,7.576
586.0,9036454.676,-1.6,1.6,2.9,4.0,2.202,2.204,8.468,7.593
587.0,9051596.273,-1.6,1.6,2.9,4.0,2.208,2.205,8.488,7.595
588.0,9066755.609,-1.6,1.6,2.9,4.0,2.207,2.2,8.485,7.578
589.0,9081967.059,-1.6,1.6,2.9,4.0,2.203,2.2,8.471,7.573
590.0,9097167.334,-1.6,1.6,2.9,4.0,2.203,2.195,8.468,7.555
591.0,9112379.326,-1.6,1.6,2.9,4.0,2.199,2.198,8.459,7.567
592.0,9120061.788,-1.6,1.6,2.9,4.0,1.566,1.58,5.926,5.312
593.0,9135167.604,-1.6,1.6,2.9,4.0,2.212,2.165,8.507,7.437
594.0,9150438.497,-1.6,1.6,2.9,4.0,2.169,2.171,8.356,7.463
595.0,9165655.331,-1.599,1.6,2.9,4.0,2.174,2.151,8.372,7.389
596.0,9180951.73,-1.6,1.6,2.9,4.0,2.155,2.161,8.31,7.418
597.0,9196137.062,-1.6,1.6,2.9,4.0,2.167,2.189,8.346,7.533
598.0,9211342.357,-1.6,1.6,2.9,4.0,2.193,2.186,8.437,7.525
599.0,9226557.732,-1.6,1.6,2.9,4.0,2.189,2.195,8.425,7.555
600.0,9241768.155,-1.6,1.6,2.9,4.0,2.198,2.193,8.453,7.55
601.0,9256998.222,-1.6,1.6,2.9,4.0,2.195,2.186,8.444,7.524
602.0,9272218.255,-1.6,1.6,2.9,4.0,2.189,2.182,8.423,7.507
603.0,9287441.53,-1.6,1.6,2.898,4.0,2.186,2.186,8.412,7.523
604.0,9302640.546,-1.6,1.6,2.9,4.0,2.189,2.189,8.425,7.532
605.0,9317854.938,-1.6,1.6,2.9,4.0,2.193,2.195,8.436,7.556
606.0,9332996.755,-1.6,1.6,2.897,4.0,2.198,2.185,8.454,7.521
607.0,9348260.988,-1.6,1.6,2.9,4.0,2.187,2.177,8.416,7.489
608.0,9363477.039,-1.6,1.6,2.9,4.0,2.181,2.19,8.398,7.537
609.0,9378690.51,-1.6,1.6,2.9,4.0,2.192,2.191,8.435,7.539
610.0,9393919.122,-1.6,1.6,2.9,4.0,2.194,2.192,8.44,7.546
611.0,9409132.747,-1.6,1.6,2.9,4.0,2.195,2.189,8.445,7.537
612.0,9424278.91,-1.6,1.6,2.9,4.0,2.192,2.189,8.433,7.532
613.0,9439416.606,-1.6,1.6,2.9,4.0,2.192,2.191,8.433,7.544
614.0,9454666.771,-1.6,1.6,2.9,4.0,2.194,2.194,8.441,7.553
615.0,9469897.106,-1.6,1.6,2.9,4.0,2.197,2.19,8.448,7.537
616.0,9485060.813,-1.6,1.6,2.9,4.0,2.194,2.19,8.438,7.538
617.0,9500246.961,-1.6,1.6,2.9,4.0,2.193,2.191,8.436,7.54
618.0,9515421.167,-1.6,1.6,2.9,4.0,2.195,2.194,8.443,7.554
619.0,9530589.766,-1.6,1.6,2.9,4.0,2.196,2.192,8.445,7.547
620.0,9545695.669,-1.6,1.6,2.9,4.0,2.196,2.191,8.445,7.543
621.0,9560816.04,-1.6,1.6,2.9,4.0,2.194,2.191,8.436,7.541
622.0,9575941.438,-1.6,1.6,2.9,4.0,2.194,2.189,8.437,7.534
623.0,9591028.464,-1.6,1.6,2.9,4.0,2.192,2.186,8.43,7.523
624.0,9606143.514,-1.6,1.6,2.9,4.0,2.189,2.192,8.419,7.543
625.0,9621340.237,-1.6,1.6,2.9,4.0,2.194,2.186,8.441,7.525
626.0,9636494.745,-1.6,1.6,2.899,4.0,2.19,2.186,8.424,7.525
627.0,9651603.702,-1.6,1.6,2.9,4.0,2.189,2.186,8.42,7.523
628.0,9666688.122,-1.6,1.6,2.9,4.0,2.189,2.18,8.419,7.503
629.0,9674303.244,-1.6,1.6,2.9,4.0,1.548,1.569,5.86,5.274
630.0,9689599.393,-1.6,1.6,2.9,4.0,2.204,2.186,8.479,7.52
631.0,9704716.789,-1.6,1.6,2.9,4.0,2.189,2.18,8.422,7.502
632.0,9719810.606,-1.6,1.6,2.9,4.0,2.184,2.182,8.403,7.511
633.0,9734929.046,-1.6,1.6,2.9,4.0,2.186,2.186,8.41,7.524
634.0,9750052.837,-1.6,1.6,2.9,4.0,2.189,2.182,8.42,7.513
635.0,9765123.679,-1.6,1.6,2.899,4.0,2.185,2.174,8.407,7.48
636.0,9780291.181,-1.6,1.6,2.9,4.0,2.177,2.176,8.379,7.484
637.0,9795486.911,-1.6,1.6,2.9,4.0,2.18,2.182,8.39,7.509
638.0,9810670.845,-1.6,1.6,2.9,4.0,2.186,2.184,8.41,7.517
639.0,9825846.656,-1.6,1.6,2.9,4.0,2.187,2.185,8.415,7.52
640.0,9841021.993,-1.6,1.6,2.9,4.0,2.188,2.184,8.417,7.516
641.0,9856132.6,-1.6,1.6,2.9,4.0,2.186,2.175,8.412,7.486
642.0,9871335.631,-1.6,1.6,2.9,4.0,2.176,2.172,8.379,7.47
643.0,9886510.881,-1.6,1.6,2.9,4.0,2.175,2.17,8.375,7.463
644.0,9901721.387,-1.6,1.6,2.9,4.0,2.174,2.169,8.37,7.46
645.0,9916904.385,-1.6,1.6,2.9,4.0,2.172,2.17,8.364,7.465
646.0,9932101.628,-1.6,1.6,2.9,4.0,2.174,2.168,8.37,7.452
647.0,9947332.17,-1.6,1.6,2.9,4.0,2.169,2.154,8.355,7.404
648.0,9962566.697,-1.6,1.6,2.9,4.0,2.158,2.17,8.318,7.461
649.0,9977745.865,-1.6,1.6,2.9,4.0,2.173,2.176,8.366,7.487
650.0,9992891.087,-1.6,1.6,2.9,4.0,2.181,2.172,8.392,7.477
651.0,10008104.453,-1.6,1.6,2.9,4.0,2.174,2.176,8.372,7.485
652.0,10018699.325,-1.6,1.6,3.408,4.0,2.178,0.269,8.384,1.016