File: Li-ion_Batteries/UL-PUR_N10-EX9_18650_NCA_23C_0-100_0.5-0.5C_i_cycle_data.csv
Cycle_Index,Test_Time (s),Min_Current (A),Max_Current (A),Min_Voltage (V),Max_Voltage (V),Charge_Capacity (Ah),Discharge_Capacity (Ah),Charge_Energy (Wh),Discharge_Energy (Wh)
1.0,21868.26,-1.133,1.133,2.7,4.201,2.038,3.306,8.107,11.678
2.0,47957.669,-1.134,1.133,2.7,4.201,3.311,3.305,12.665,11.673
3.0,74106.761,-1.133,1.133,2.7,4.2,3.309,3.302,12.66,11.651
4.0,100058.89,-1.133,1.133,2.7,4.201,3.308,3.304,12.657,11.664
5.0,125953.074,-1.134,1.134,2.7,4.201,3.309,3.305,12.654,11.674
6.0,151916.294,-1.134,1.134,2.7,4.201,3.31,3.304,12.658,11.668
7.0,178140.687,-1.134,1.134,2.7,4.201,3.309,3.304,12.658,11.659
8.0,204282.466,-1.134,1.133,2.7,4.201,3.307,3.302,12.653,11.652
9.0,230430.262,-1.134,1.133,2.7,4.201,3.305,3.302,12.647,11.651
10.0,256551.351,-1.134,1.134,2.7,4.201,3.306,3.301,12.649,11.648
11.0,282775.553,-1.134,1.133,2.7,4.201,3.305,3.3,12.644,11.638
12.0,308860.945,-1.134,1.133,2.7,4.201,3.304,3.299,12.643,11.634
13.0,335160.335,-1.134,1.134,2.7,4.201,3.304,3.299,12.641,11.627
14.0,361458.118,-1.133,1.133,2.7,4.201,3.303,3.297,12.64,11.617
15.0,387993.152,-1.133,1.133,2.7,4.201,3.301,3.294,12.633,11.595
16.0,414434.663,-1.133,1.133,2.7,4.201,3.298,3.295,12.631,11.602
17.0,440924.82,-1.134,1.133,2.7,4.2,3.299,3.294,12.631,11.598
18.0,467243.247,-1.134,1.133,2.7,4.201,3.299,3.296,12.631,11.613
19.0,493555.016,-1.134,1.133,2.7,4.201,3.301,3.296,12.632,11.615
20.0,519875.435,-1.134,1.134,2.7,4.201,3.3,3.295,12.629,11.607
21.0,546232.605,-1.134,1.133,2.7,4.201,3.299,3.294,12.628,11.602
22.0,572607.376,-1.134,1.133,2.7,4.201,3.299,3.294,12.626,11.599
23.0,598963.182,-1.134,1.133,2.7,4.201,3.298,3.293,12.622,11.596
24.0,625322.181,-1.134,1.133,2.7,4.201,3.298,3.294,12.622,11.596
25.0,651615.569,-1.134,1.134,2.7,4.201,3.299,3.294,12.622,11.604
26.0,678082.738,-1.134,1.133,2.7,4.201,3.298,3.292,12.62,11.59
27.0,704785.72,-1.134,1.133,2.7,4.201,3.294,3.288,12.611,11.557
28.0,731372.249,-1.133,1.133,2.7,4.201,3.292,3.287,12.609,11.555
29.0,758167.997,-1.134,1.133,2.7,4.201,3.29,3.287,12.602,11.555
30.0,784956.386,-1.134,1.133,2.7,4.201,3.292,3.286,12.61,11.542
31.0,811809.402,-1.133,1.134,2.7,4.201,3.289,3.285,12.603,11.539
32.0,838594.453,-1.133,1.134,2.7,4.201,3.29,3.285,12.603,11.537
33.0,865506.248,-1.133,1.133,2.7,4.201,3.289,3.284,12.6,11.532
34.0,892380.736,-1.133,1.133,2.7,4.201,3.287,3.282,12.593,11.52
35.0,919280.127,-1.133,1.134,2.7,4.201,3.287,3.281,12.596,11.515
36.0,946397.682,-1.133,1.133,2.7,4.201,3.285,3.282,12.59,11.519
37.0,973484.599,-1.134,1.133,2.7,4.201,3.286,3.281,12.595,11.512
38.0,1000496.806,-1.134,1.133,2.7,4.201,3.286,3.282,12.591,11.519
39.0,1027526.27,-1.133,1.133,2.7,4.201,3.285,3.28,12.588,11.507
40.0,1051741.827,-1.6,1.133,2.7,4.201,3.284,3.284,12.589,11.394
41.0,1073062.473,-1.6,1.6,2.7,4.201,3.284,3.28,12.707,11.362
42.0,1094238.484,-1.6,1.6,2.7,4.201,3.282,3.278,12.698,11.347
43.0,1115424.397,-1.6,1.6,2.7,4.201,3.281,3.278,12.695,11.349
44.0,1136744.731,-1.6,1.6,2.7,4.201,3.28,3.275,12.691,11.331
45.0,1158067.425,-1.6,1.6,2.7,4.201,3.277,3.273,12.687,11.32
46.0,1176864.743,-1.6,1.6,2.7,4.201,3.278,3.012,12.691,10.613
47.0,1194980.016,-1.6,1.6,2.7,4.201,3.016,3.026,11.738,10.652
48.0,1213201.649,-1.6,1.6,2.7,4.201,3.03,3.012,11.79,10.602
49.0,1231393.182,-1.6,1.6,2.7,4.201,3.016,3.008,11.741,10.586
50.0,1249653.974,-1.6,1.6,2.7,4.201,3.012,3.013,11.73,10.599
51.0,1261487.681,-1.6,1.6,2.7,4.2,2.497,2.496,9.562,8.62
52.0,1279748.43,-1.6,1.6,2.7,4.201,3.017,3.016,11.747,10.609
53.0,1297867.004,-1.6,1.6,2.7,4.201,3.019,3.012,11.75,10.588
54.0,1316067.229,-1.6,1.6,2.7,4.201,3.016,2.998,11.744,10.538
55.0,1334430.717,-1.6,1.6,2.7,4.201,3.003,3.01,11.699,10.577
56.0,1352691.371,-1.6,1.6,2.7,4.201,3.014,2.996,11.739,10.53
57.0,1370980.663,-1.6,1.6,2.7,4.201,3.001,2.997,11.693,10.536
58.0,1382710.428,-1.6,1.6,2.7,4.2,2.472,2.474,9.472,8.533
59.0,1400977.72,-1.6,1.6,2.6,4.201,3.001,2.991,11.696,10.511
60.0,1419259.07,-1.6,1.6,2.7,4.201,2.995,2.994,11.674,10.515
61.0,1437562.642,-1.6,1.6,2.7,4.201,2.998,3.002,11.685,10.54
62.0,1455979.741,-1.6,1.6,2.7,4.201,3.008,2.994,11.721,10.518
63.0,1474268.608,-1.6,1.6,2.7,4.201,2.997,2.996,11.68,10.517
64.0,1492634.079,-1.6,1.6,2.7,4.201,3.0,2.986,11.691,10.479
65.0,1510991.811,-1.6,1.6,2.7,4.201,2.99,2.996,11.658,10.51
66.0,1529403.319,-1.6,1.6,2.7,4.201,3.0,2.99,11.694,10.493
67.0,1547793.559,-1.6,1.6,2.7,4.201,2.995,2.984,11.678,10.474
68.0,1566188.985,-1.6,1.6,2.7,4.201,2.987,2.975,11.651,10.438
69.0,1584588.793,-1.6,1.6,2.7,4.201,2.98,2.981,11.627,10.457
70.0,1603051.917,-1.6,1.6,2.7,4.201,2.985,2.988,11.642,10.478
71.0,1621556.546,-1.6,1.6,2.7,4.201,2.993,2.988,11.671,10.476
72.0,1639983.68,-1.6,1.6,2.7,4.201,2.99,2.982,11.662,10.457
73.0,1658396.783,-1.6,1.6,2.7,4.201,2.986,2.98,11.647,10.443
74.0,1676849.915,-1.6,1.6,2.7,4.201,2.984,2.979,11.64,10.439
75.0,1695320.251,-1.6,1.6,2.7,4.201,2.983,2.98,11.639,10.446
76.0,1713782.364,-1.6,1.6,2.7,4.201,2.985,2.979,11.647,10.44
77.0,1732255.685,-1.6,1.6,2.7,4.201,2.984,2.997,11.643,10.508
78.0,1750616.347,-1.6,1.6,2.697,4.201,3.002,2.967,11.697,10.394
79.0,1769078.501,-1.6,1.6,2.7,4.201,3.0,3.003,11.694,10.533
80.0,1787560.56,-1.6,1.6,2.7,4.201,3.007,3.002,11.717,10.529
81.0,1805557.208,-1.6,1.6,2.7,4.201,2.999,2.992,11.684,10.489
82.0,1824027.233,-1.6,1.6,2.7,4.201,3.004,3.004,11.707,10.534
83.0,1842597.651,-1.6,1.6,2.7,4.201,3.006,3.001,11.715,10.517
84.0,1861240.123,-1.6,1.6,2.7,4.2,2.994,2.916,11.678,10.182
85.0,1879884.2,-1.6,1.6,2.7,4.2,2.916,2.901,11.421,10.115
86.0,1898658.234,-1.6,1.6,2.7,4.2,2.902,2.926,11.376,10.2
87.0,1917319.573,-1.6,1.6,2.7,4.2,2.94,2.955,11.501,10.333
88.0,1935894.889,-1.6,1.6,2.7,4.2,2.959,2.959,11.563,10.35
89.0,1947334.009,-1.6,1.6,2.7,4.2,2.411,2.407,9.256,8.264
90.0,1965916.592,-1.6,1.6,2.7,4.201,2.962,2.964,11.573,10.368
91.0,1984545.921,-1.6,1.6,2.683,4.2,2.965,2.95,11.582,10.312
92.0,2003217.039,-1.6,1.6,2.653,4.2,2.954,2.946,11.546,10.296
93.0,2021822.674,-1.6,1.6,2.7,4.2,2.951,2.943,11.538,10.284
94.0,2040485.471,-1.6,1.6,2.7,4.2,2.945,2.936,11.517,10.252
95.0,2059152.168,-1.6,1.6,2.7,4.2,2.938,2.93,11.494,10.226
96.0,2077900.247,-1.6,1.6,2.68,4.2,2.935,2.942,11.486,10.277
97.0,2096637.361,-1.6,1.6,2.7,4.2,2.949,2.945,11.531,10.288
98.0,2115351.574,-1.6,1.6,2.7,4.2,2.948,2.943,11.53,10.279
99.0,2134091.118,-1.6,1.6,2.7,4.201,2.949,2.954,11.532,10.325
100.0,2152778.201,-1.6,1.6,2.7,4.201,2.957,2.953,11.558,10.318
101.0,2171469.399,-1.6,1.6,2.7,4.201,2.957,2.944,11.557,10.277
102.0,2190091.327,-1.6,1.6,2.7,4.201,2.948,2.943,11.526,10.278
103.0,2208776.935,-1.6,1.6,2.7,4.201,2.946,2.935,11.519,10.241
104.0,2227499.342,-1.6,1.6,2.7,4.201,2.939,2.94,11.498,10.265
105.0,2246325.445,-1.6,1.6,2.7,4.2,2.942,2.929,11.507,10.215
106.0,2265109.437,-1.6,1.6,2.7,4.2,2.934,2.928,11.485,10.214
107.0,2283888.991,-1.6,1.6,2.7,4.201,2.933,2.923,11.48,10.197
108.0,2302706.72,-1.6,1.6,2.7,4.2,2.926,2.918,11.458,10.177
109.0,2321546.8,-1.6,1.6,2.7,4.2,2.918,2.907,11.431,10.125
110.0,2340302.223,-1.6,1.6,2.7,4.2,2.914,2.916,11.417,10.16
111.0,2359129.111,-1.6,1.6,2.689,4.2,2.92,2.917,11.438,10.167
112.0,2377946.355,-1.6,1.6,2.7,4.2,2.92,2.914,11.437,10.151
113.0,2396842.434,-1.6,1.6,2.652,4.2,2.917,2.906,11.429,10.12
114.0,2415693.595,-1.6,1.6,2.7,4.2,2.912,2.914,11.413,10.158
115.0,2434555.586,-1.6,1.6,2.7,4.2,2.918,2.914,11.433,10.152
116.0,2453357.87,-1.6,1.6,2.7,4.2,2.917,2.916,11.426,10.156
117.0,2472252.193,-1.6,1.6,2.7,4.2,2.919,2.924,11.432,10.167
118.0,2491250.545,-1.6,1.6,2.7,4.2,2.929,2.91,11.463,10.132
119.0,2510092.382,-1.6,1.6,2.7,4.201,2.915,2.907,11.423,10.122
120.0,2528910.359,-1.6,1.6,2.7,4.2,2.912,2.926,11.415,10.194
121.0,2547871.04,-1.6,1.6,2.688,4.2,2.928,2.908,11.468,10.126
122.0,2566796.501,-1.6,1.6,2.699,4.2,2.91,2.898,11.405,10.086
123.0,2585745.996,-1.6,1.6,2.7,4.2,2.902,2.899,11.381,10.087
124.0,2604856.909,-1.6,1.6,2.7,4.2,2.904,2.895,11.384,10.074
125.0,2623894.942,-1.6,1.6,2.7,4.2,2.897,2.89,11.365,10.054
126.0,2642894.462,-1.6,1.6,2.671,4.2,2.894,2.889,11.353,10.047
127.0,2661891.407,-1.6,1.6,2.7,4.2,2.893,2.889,11.351,10.043
128.0,2680840.777,-1.6,1.6,2.7,4.2,2.892,2.89,11.344,10.047
129.0,2699834.019,-1.6,1.6,2.7,4.2,2.894,2.876,11.354,9.992
130.0,2718920.896,-1.6,1.6,2.7,4.2,2.88,2.882,11.309,10.016
131.0,2737890.821,-1.6,1.6,2.7,4.2,2.887,2.881,11.331,10.011
132.0,2756787.773,-1.6,1.6,2.697,4.2,2.883,2.881,11.316,10.005
133.0,2775782.66,-1.6,1.6,2.7,4.2,2.886,2.878,11.325,10.002
134.0,2794887.593,-1.6,1.6,2.7,4.2,2.881,2.876,11.313,9.992
135.0,2813910.451,-1.6,1.6,2.7,4.2,2.881,2.878,11.312,9.996
136.0,2832871.233,-1.6,1.6,2.7,4.2,2.881,2.874,11.31,9.98
137.0,2851956.412,-1.6,1.6,2.7,4.2,2.878,2.871,11.302,9.973
138.0,2871162.273,-1.6,1.6,2.698,4.2,2.873,2.875,11.292,9.981
139.0,2890133.06,-1.6,1.6,2.7,4.2,2.884,2.893,11.321,10.061
140.0,2909036.603,-1.6,1.6,2.7,4.2,2.897,2.875,11.361,10.0
141.0,2928081.948,-1.6,1.6,2.7,4.2,2.874,2.873,11.29,9.973
142.0,2947273.417,-1.6,1.6,2.7,4.2,2.876,2.87,11.296,9.966
143.0,2958056.709,-1.6,1.6,2.7,4.2,2.267,2.258,8.741,7.681
144.0,2977142.395,-1.6,1.6,2.7,4.2,2.867,2.868,11.265,9.956
145.0,2987929.021,-1.6,1.6,2.7,4.2,2.264,2.263,8.73,7.695
146.0,3007050.241,-1.6,1.6,2.693,4.2,2.872,2.871,11.284,9.962
147.0,3026193.775,-1.6,1.6,2.653,4.2,2.875,2.867,11.292,9.95
148.0,3045225.418,-1.6,1.6,2.7,4.2,2.869,2.855,11.271,9.898
149.0,3064324.82,-1.6,1.6,2.7,4.2,2.858,2.857,11.234,9.911
150.0,3083578.148,-1.6,1.6,2.7,4.2,2.865,2.856,11.262,9.919
151.0,3094297.504,-1.6,1.6,2.674,4.2,2.248,2.249,8.674,7.644
152.0,3113475.046,-1.6,1.6,2.7,4.2,2.86,2.857,11.247,9.908
153.0,3132628.284,-1.6,1.6,2.7,4.2,2.858,2.849,11.235,9.873
154.0,3151881.966,-1.6,1.6,2.7,4.2,2.855,2.856,11.228,9.904
155.0,3171087.588,-1.6,1.6,2.7,4.2,2.859,2.849,11.241,9.878
156.0,3190240.879,-1.6,1.6,2.7,4.2,2.853,2.853,11.221,9.891
157.0,3200936.855,-1.6,1.6,2.7,4.2,2.243,2.243,8.655,7.62
158.0,3220115.655,-1.6,1.6,2.7,4.2,2.86,2.858,11.246,9.91
159.0,3239320.461,-1.6,1.6,2.7,4.2,2.86,2.855,11.242,9.9
160.0,3258523.507,-1.6,1.6,2.7,4.2,2.862,2.864,11.251,9.939
161.0,3277711.948,-1.6,1.6,2.7,4.2,2.869,2.866,11.274,9.944
162.0,3296844.931,-1.6,1.6,2.7,4.2,2.867,2.85,11.266,9.881
163.0,3307506.017,-1.6,1.6,2.7,4.2,2.236,2.235,8.631,7.589
164.0,3326767.207,-1.6,1.6,2.7,4.2,2.854,2.851,11.227,9.882
165.0,3346039.7,-1.6,1.6,2.7,4.2,2.854,2.849,11.227,9.876
166.0,3365254.364,-1.6,1.6,2.7,4.2,2.852,2.846,11.218,9.862
167.0,3384410.513,-1.6,1.6,2.7,4.2,2.849,2.839,11.206,9.836
168.0,3403619.3,-1.6,1.6,2.7,4.2,2.842,2.839,11.184,9.832
169.0,3422821.732,-1.6,1.6,2.7,4.2,2.844,2.839,11.19,9.836
170.0,3442077.545,-1.6,1.6,2.7,4.2,2.842,2.84,11.182,9.837
171.0,3461298.868,-1.6,1.6,2.7,4.2,2.845,2.833,11.191,9.814
172.0,3480519.964,-1.6,1.6,2.7,4.2,2.836,2.828,11.165,9.793
173.0,3491071.908,-1.6,1.6,2.7,4.2,2.21,2.213,8.538,7.507
174.0,3510329.467,-1.6,1.6,2.7,4.2,2.837,2.836,11.171,9.823
175.0,3529591.219,-1.6,1.6,2.7,4.2,2.838,2.838,11.172,9.827
176.0,3548849.172,-1.6,1.6,2.7,4.2,2.843,2.831,11.186,9.801
177.0,3568145.105,-1.6,1.6,2.7,4.2,2.833,2.822,11.156,9.767
178.0,3587422.052,-1.6,1.6,2.7,4.2,2.827,2.83,11.133,9.796
179.0,3606675.838,-1.6,1.6,2.7,4.2,2.833,2.826,11.153,9.782
180.0,3625882.254,-1.6,1.6,2.7,4.2,2.83,2.825,11.144,9.781
181.0,3645213.417,-1.6,1.6,2.7,4.2,2.83,2.826,11.146,9.783
182.0,3664514.9,-1.6,1.6,2.7,4.2,2.828,2.824,11.138,9.774
183.0,3683829.438,-1.6,1.6,2.7,4.2,2.829,2.842,11.138,9.841
184.0,3703265.323,-1.6,1.6,2.7,4.2,2.846,2.822,11.205,9.764
185.0,3722516.925,-1.6,1.6,2.7,4.2,2.825,2.821,11.127,9.76
186.0,3741829.328,-1.6,1.6,2.7,4.2,2.825,2.815,11.127,9.74
187.0,3761114.937,-1.6,1.6,2.7,4.2,2.818,2.819,11.104,9.757
188.0,3780390.154,-1.6,1.6,2.7,4.2,2.823,2.818,11.119,9.748
189.0,3799650.655,-1.6,1.6,2.7,4.2,2.821,2.819,11.114,9.752
190.0,3819013.173,-1.6,1.6,2.7,4.2,2.822,2.814,11.118,9.736
191.0,3838293.379,-1.6,1.6,2.7,4.2,2.818,2.804,11.102,9.697
192.0,3857710.711,-1.6,1.6,2.7,4.2,2.808,2.815,11.074,9.736
193.0,3876979.001,-1.6,1.6,2.563,4.2,2.818,2.815,11.103,9.733
194.0,3896185.6,-1.6,1.6,2.7,4.2,2.819,2.807,11.105,9.708
195.0,3906581.159,-1.6,1.6,2.7,4.2,2.176,2.177,8.413,7.373
196.0,3925943.165,-1.6,1.6,2.7,4.2,2.814,2.804,11.097,9.694
197.0,3945314.46,-1.6,1.6,2.7,4.2,2.806,2.813,11.067,9.728
198.0,3964689.32,-1.6,1.6,2.7,4.2,2.817,2.81,11.099,9.719
199.0,3983958.774,-1.6,1.6,2.7,4.2,2.814,2.807,11.091,9.711
200.0,4003310.014,-1.6,1.6,2.693,4.2,2.81,2.8,11.077,9.679
201.0,4022759.094,-1.6,1.6,2.7,4.2,2.803,2.803,11.056,9.691
202.0,4033120.476,-1.6,1.6,2.496,4.2,2.169,2.169,8.386,7.34
203.0,4052512.608,-1.6,1.6,2.7,4.2,2.808,2.801,11.075,9.68
204.0,4071842.591,-1.6,1.6,2.7,4.2,2.806,2.804,11.065,9.698
205.0,4080195.549,0.179,1.6,3.368,4.2,2.696,0.0,10.604,0.0