File: Li-ion_Batteries/UL-PUR_N20-EX2_18650_NCA_23C_0-100_0.5-0.5C_b_cycle_data.csv
Cycle_Index,Test_Time (s),Min_Current (A),Max_Current (A),Min_Voltage (V),Max_Voltage (V),Charge_Capacity (Ah),Discharge_Capacity (Ah),Charge_Energy (Wh),Discharge_Energy (Wh)
1.0,19702.687,-1.603,1.597,2.697,4.2,1.907,3.362,7.693,11.767
2.0,42676.113,-1.603,1.597,2.697,4.2,3.403,3.355,13.146,11.746
3.0,65714.591,-1.603,1.597,2.697,4.2,3.394,3.347,13.102,11.702
4.0,88778.496,-1.603,1.597,2.697,4.2,3.386,3.349,13.085,11.711
5.0,111686.961,-1.603,1.598,2.697,4.2,3.388,3.349,13.083,11.714
6.0,134613.877,-1.603,1.597,2.697,4.2,3.388,3.349,13.078,11.714
7.0,157806.878,-1.603,1.597,2.697,4.2,3.387,3.345,13.076,11.687
8.0,181077.7,-1.603,1.597,2.697,4.2,3.385,3.345,13.074,11.682
9.0,204230.494,-1.603,1.597,2.697,4.2,3.384,3.347,13.071,11.693
10.0,227350.78,-1.603,1.597,2.697,4.2,3.384,3.347,13.068,11.692
11.0,250580.476,-1.603,1.597,2.697,4.2,3.383,3.343,13.064,11.663
12.0,273810.924,-1.603,1.598,2.697,4.2,3.382,3.344,13.066,11.673
13.0,297059.899,-1.603,1.597,2.697,4.2,3.383,3.342,13.061,11.658
14.0,320388.756,-1.603,1.597,2.697,4.2,3.381,3.342,13.06,11.66
15.0,343853.488,-1.603,1.597,2.697,4.2,3.38,3.34,13.059,11.644
16.0,367285.874,-1.603,1.598,2.697,4.2,3.378,3.338,13.049,11.636
17.0,390733.751,-1.603,1.597,2.697,4.2,3.377,3.338,13.051,11.639
18.0,414650.126,-1.604,1.597,2.697,4.2,3.377,3.332,13.049,11.591
19.0,438520.364,-1.603,1.597,2.697,4.2,3.371,3.332,13.041,11.595
20.0,462263.994,-1.603,1.597,2.697,4.2,3.372,3.333,13.043,11.604
21.0,485979.258,-1.603,1.597,2.697,4.2,3.372,3.333,13.04,11.605
22.0,508350.238,-1.603,1.597,2.697,4.2,3.37,3.33,13.031,11.583
23.0,529420.734,-1.603,1.597,2.697,4.2,3.369,3.326,13.032,11.562
24.0,550271.21,-1.603,1.597,2.697,4.2,3.368,3.327,13.024,11.574
25.0,571144.307,-1.603,1.598,2.697,4.2,3.368,3.326,13.025,11.569
26.0,592310.053,-1.603,1.597,2.697,4.2,3.366,3.32,13.016,11.533
27.0,613536.653,-1.603,1.597,2.697,4.2,3.363,3.32,13.015,11.532
28.0,634598.582,-1.603,1.597,2.697,4.2,3.361,3.322,13.011,11.543
29.0,655739.585,-1.603,1.597,2.697,4.2,3.363,3.32,13.011,11.532
30.0,677060.13,-1.603,1.597,2.697,4.2,3.358,3.312,12.995,11.476
31.0,698416.961,-1.603,1.597,2.697,4.2,3.355,3.315,12.992,11.496
32.0,719651.231,-1.603,1.597,2.697,4.2,3.357,3.316,12.996,11.506
33.0,740813.749,-1.603,1.597,2.697,4.2,3.356,3.315,12.993,11.505
34.0,762387.56,-1.603,1.597,2.697,4.2,3.356,3.308,12.991,11.452
35.0,783869.458,-1.603,1.597,2.697,4.2,3.349,3.31,12.977,11.471
36.0,805268.852,-1.603,1.597,2.697,4.2,3.351,3.311,12.983,11.478
37.0,826673.629,-1.603,1.597,2.697,4.2,3.351,3.311,12.983,11.478
38.0,848527.715,-1.603,1.597,2.697,4.2,3.35,3.303,12.975,11.423
39.0,870200.769,-1.603,1.597,2.697,4.2,3.344,3.304,12.966,11.43
40.0,891762.755,-1.603,1.597,2.697,4.2,3.346,3.305,12.969,11.444
41.0,913350.435,-1.603,1.597,2.697,4.2,3.346,3.304,12.969,11.44
42.0,935247.16,-1.603,1.597,2.697,4.2,3.346,3.296,12.97,11.389
43.0,957163.177,-1.603,1.597,2.697,4.2,3.339,3.297,12.958,11.4
44.0,978735.362,-1.603,1.597,2.697,4.2,3.346,3.302,12.977,11.432
45.0,1000278.029,-1.603,1.598,2.697,4.2,3.349,3.303,12.977,11.437
46.0,1022137.313,-1.603,1.597,2.697,4.2,3.347,3.293,12.967,11.379
47.0,1043955.078,-1.603,1.597,2.697,4.2,3.337,3.294,12.954,11.385
48.0,1065789.972,-1.603,1.597,2.697,4.2,3.341,3.294,12.959,11.386
49.0,1087453.776,-1.603,1.597,2.697,4.2,3.34,3.297,12.952,11.401
50.0,1109277.5,-1.603,1.597,2.697,4.2,3.341,3.293,12.953,11.376
51.0,1131288.205,-1.603,1.598,2.697,4.2,3.338,3.291,12.953,11.36
52.0,1153189.419,-1.603,1.597,2.697,4.2,3.337,3.29,12.948,11.363
53.0,1174946.873,-1.603,1.597,2.697,4.2,3.335,3.292,12.938,11.374
54.0,1197012.175,-1.603,1.597,2.697,4.2,3.336,3.283,12.935,11.319
55.0,1218991.133,-1.603,1.597,2.697,4.2,3.329,3.284,12.925,11.328
56.0,1240560.944,-1.603,1.597,2.697,4.2,3.33,3.29,12.926,11.356
57.0,1262464.881,-1.603,1.597,2.697,4.2,3.334,3.286,12.936,11.345
58.0,1284704.355,-1.603,1.597,2.697,4.2,3.328,3.277,12.917,11.283
59.0,1306868.783,-1.625,1.597,2.697,4.2,3.326,3.281,12.919,11.308
60.0,1328850.413,-1.603,1.598,2.697,4.2,3.325,3.282,12.912,11.318
61.0,1350818.401,-1.603,1.597,2.697,4.2,3.325,3.28,12.907,11.311
62.0,1372976.213,-1.603,1.597,2.697,4.2,3.322,3.272,12.897,11.265
63.0,1395147.393,-1.603,1.597,2.697,4.2,3.318,3.274,12.895,11.27
64.0,1417407.536,-1.603,1.597,2.697,4.2,3.319,3.274,12.898,11.268
65.0,1439675.546,-1.603,1.597,2.697,4.2,3.319,3.272,12.896,11.259
66.0,1461999.654,-1.603,1.597,2.697,4.2,3.316,3.268,12.885,11.239
67.0,1484322.516,-1.603,1.597,2.697,4.2,3.314,3.268,12.883,11.237
68.0,1506553.94,-1.603,1.605,2.697,4.2,3.316,3.268,12.887,11.243
69.0,1528782.53,-1.603,1.597,2.697,4.2,3.314,3.265,12.879,11.234
70.0,1551743.221,-1.603,1.597,2.697,4.2,3.312,3.256,12.886,11.182
71.0,1574387.218,-1.603,1.597,2.697,4.2,3.306,3.26,12.874,11.197
72.0,1596808.02,-1.603,1.597,2.697,4.2,3.308,3.263,12.87,11.211
73.0,1619466.946,-1.603,1.597,2.697,4.2,3.31,3.256,12.872,11.19
74.0,1642256.642,-1.603,1.597,2.697,4.2,3.302,3.252,12.862,11.147
75.0,1664942.376,-1.603,1.597,2.697,4.2,3.301,3.255,12.853,11.165
76.0,1687643.111,-1.603,1.597,2.697,4.2,3.304,3.256,12.858,11.174
77.0,1710349.513,-1.603,1.597,2.697,4.2,3.303,3.25,12.85,11.134
78.0,1733286.847,-1.603,1.597,2.697,4.2,3.298,3.248,12.843,11.127
79.0,1756118.99,-1.603,1.597,2.697,4.2,3.297,3.249,12.841,11.137
80.0,1778826.624,-1.603,1.597,2.697,4.2,3.298,3.252,12.841,11.156
81.0,1801912.918,-1.603,1.597,2.697,4.2,3.298,3.247,12.838,11.124
82.0,1824865.743,-1.603,1.597,2.697,4.2,3.296,3.249,12.846,11.129
83.0,1847744.646,-1.603,1.597,2.697,4.2,3.292,3.246,12.823,11.128
84.0,1870575.583,-1.603,1.597,2.697,4.2,3.292,3.246,12.822,11.113
85.0,1893618.797,-1.603,1.597,2.697,4.2,3.291,3.242,12.821,11.094
86.0,1916604.69,-1.604,1.597,2.697,4.2,3.289,3.243,12.818,11.096
87.0,1939489.995,-1.603,1.597,2.697,4.2,3.288,3.242,12.813,11.095
88.0,1962480.798,-1.603,1.597,2.697,4.2,3.287,3.239,12.81,11.082
89.0,1985743.566,-1.603,1.597,2.697,4.2,3.284,3.236,12.808,11.05
90.0,2008796.516,-1.603,1.597,2.697,4.2,3.28,3.238,12.795,11.068
91.0,2031903.689,-1.603,1.597,2.697,4.2,3.281,3.236,12.792,11.057
92.0,2055077.25,-1.604,1.597,2.697,4.2,3.281,3.234,12.794,11.048
93.0,2078398.471,-1.603,1.597,2.697,4.2,3.28,3.231,12.794,11.03
94.0,2101689.231,-1.637,1.597,2.697,4.2,3.277,3.232,12.788,11.035
95.0,2124951.082,-1.603,1.597,2.697,4.2,3.277,3.232,12.783,11.036
96.0,2148209.913,-1.603,1.598,2.697,4.2,3.276,3.23,12.78,11.027
97.0,2171564.663,-1.604,1.598,2.697,4.2,3.276,3.231,12.783,11.029
98.0,2194727.97,-1.603,1.597,2.697,4.2,3.277,3.231,12.78,11.04
99.0,2217820.849,-1.603,1.597,2.697,4.2,3.276,3.232,12.775,11.043
100.0,2241110.726,-1.603,1.597,2.697,4.2,3.276,3.227,12.774,11.011
101.0,2264562.726,-1.603,1.597,2.697,4.2,3.272,3.224,12.77,10.995
102.0,2287931.065,-1.603,1.597,2.697,4.2,3.272,3.226,12.767,11.002
103.0,2311297.779,-1.603,1.597,2.697,4.2,3.271,3.224,12.764,10.995
104.0,2335031.349,-1.603,1.597,2.697,4.2,3.266,3.214,12.754,10.945
105.0,2358501.025,-1.603,1.597,2.697,4.2,3.262,3.219,12.744,10.969
106.0,2381958.077,-1.603,1.597,2.697,4.2,3.265,3.218,12.748,10.963
107.0,2405435.927,-1.603,1.597,2.697,4.2,3.263,3.212,12.737,10.932
108.0,2429220.488,-1.603,1.597,2.697,4.2,3.259,3.213,12.737,10.932
109.0,2452774.747,-1.603,1.597,2.697,4.2,3.261,3.216,12.74,10.959
110.0,2476357.735,-1.603,1.597,2.697,4.2,3.259,3.212,12.733,10.933
111.0,2500085.663,-1.603,1.597,2.697,4.2,3.257,3.204,12.724,10.895
112.0,2523794.283,-1.603,1.597,2.697,4.2,3.252,3.208,12.714,10.912
113.0,2547442.649,-1.603,1.597,2.697,4.2,3.254,3.208,12.714,10.914
114.0,2571125.387,-1.603,1.598,2.697,4.2,3.253,3.206,12.711,10.907
115.0,2594924.22,-1.603,1.597,2.697,4.2,3.251,3.203,12.704,10.889
116.0,2618578.925,-1.603,1.598,2.697,4.2,3.251,3.207,12.71,10.917
117.0,2642261.509,-1.603,1.597,2.697,4.2,3.252,3.202,12.704,10.885
118.0,2666099.58,-1.603,1.598,2.697,4.2,3.249,3.203,12.701,10.891
119.0,2690025.33,-1.603,1.597,2.697,4.2,3.246,3.195,12.687,10.84
120.0,2713901.327,-1.603,1.597,2.697,4.2,3.245,3.202,12.691,10.884
121.0,2737978.107,-1.603,1.597,2.697,4.2,3.245,3.197,12.692,10.86
122.0,2762178.461,-1.603,1.597,2.697,4.2,3.241,3.192,12.679,10.824
123.0,2786344.783,-1.603,1.597,2.697,4.2,3.238,3.192,12.678,10.828
124.0,2810528.512,-1.603,1.597,2.697,4.2,3.238,3.193,12.673,10.828
125.0,2834780.197,-1.603,1.597,2.697,4.2,3.235,3.187,12.66,10.794
126.0,2859315.253,-1.603,1.598,2.697,4.2,3.233,3.185,12.663,10.786
127.0,2883731.841,-1.604,1.597,2.697,4.2,3.232,3.185,12.658,10.789
128.0,2908001.929,-1.603,1.598,2.697,4.2,3.229,3.184,12.646,10.79
129.0,2932378.564,-1.603,1.597,2.697,4.2,3.226,3.177,12.632,10.749
130.0,2956968.633,-1.604,1.597,2.697,4.2,3.223,3.179,12.631,10.753
131.0,2981281.869,-1.603,1.597,2.697,4.2,3.221,3.177,12.62,10.756
132.0,3005588.645,-1.64,1.597,2.697,4.2,3.221,3.177,12.614,10.753
133.0,3030348.409,-1.603,1.598,2.697,4.2,3.224,3.169,12.625,10.708
134.0,3054897.849,-1.604,1.597,2.697,4.2,3.216,3.167,12.609,10.703
135.0,3079661.806,-1.603,1.597,2.697,4.2,3.217,3.167,12.616,10.701
136.0,3104521.451,-1.603,1.597,2.697,4.2,3.214,3.163,12.602,10.683
137.0,3129207.257,-1.603,1.598,2.697,4.2,3.217,3.167,12.617,10.71
138.0,3153779.871,-1.603,1.597,2.697,4.2,3.214,3.165,12.597,10.697
139.0,3178558.98,-1.603,1.597,2.697,4.2,3.213,3.162,12.597,10.68
140.0,3203312.003,-1.603,1.597,2.697,4.2,3.211,3.162,12.588,10.682
141.0,3228064.884,-1.603,1.597,2.697,4.2,3.211,3.161,12.591,10.678
142.0,3252903.082,-1.603,1.597,2.697,4.2,3.208,3.156,12.58,10.654
143.0,3277913.098,-1.603,1.597,2.697,4.2,3.208,3.158,12.586,10.659
144.0,3302868.113,-1.603,1.597,2.697,4.2,3.203,3.157,12.567,10.655
145.0,3327755.032,-1.603,1.597,2.697,4.2,3.206,3.156,12.572,10.652
146.0,3352833.799,-1.603,1.597,2.697,4.2,3.205,3.154,12.57,10.637
147.0,3377733.763,-1.603,1.598,2.697,4.2,3.201,3.153,12.561,10.639
148.0,3402638.334,-1.603,1.597,2.697,4.2,3.203,3.153,12.568,10.643
149.0,3427628.957,-1.603,1.597,2.697,4.2,3.202,3.152,12.558,10.634
150.0,3452862.912,-1.603,1.597,2.697,4.2,3.206,3.142,12.582,10.596
151.0,3478035.192,-1.603,1.598,2.697,4.2,3.21,3.148,12.601,10.624
152.0,3503244.251,-1.603,1.597,2.697,4.2,3.211,3.146,12.592,10.615
153.0,3528351.193,-1.603,1.597,2.697,4.2,3.21,3.145,12.598,10.618
154.0,3553674.887,-1.603,1.597,2.697,4.2,3.208,3.139,12.583,10.577
155.0,3579123.997,-1.603,1.597,2.697,4.2,3.202,3.142,12.574,10.59
156.0,3604319.002,-1.603,1.597,2.697,4.2,3.203,3.139,12.574,10.574
157.0,3629923.317,-1.603,1.597,2.697,4.2,3.216,3.136,12.639,10.572
158.0,3655679.543,-1.603,1.597,2.697,4.2,3.213,3.13,12.617,10.533
159.0,3681233.612,-1.603,1.597,2.697,4.2,3.213,3.134,12.612,10.565
160.0,3706712.3,-1.603,1.597,2.697,4.2,3.209,3.129,12.602,10.524
161.0,3732094.484,-1.603,1.597,2.697,4.2,3.211,3.132,12.607,10.555
162.0,3757391.002,-1.603,1.597,2.697,4.2,3.211,3.132,12.604,10.562
163.0,3782680.636,-1.603,1.597,2.697,4.2,3.21,3.131,12.599,10.558
164.0,3808076.356,-1.603,1.597,2.697,4.2,3.21,3.129,12.599,10.55
165.0,3833487.496,-1.603,1.597,2.697,4.2,3.207,3.128,12.59,10.542
166.0,3858594.845,-1.603,1.598,2.697,4.2,3.187,3.135,12.504,10.565
167.0,3883955.71,-1.604,1.598,2.697,4.2,3.185,3.13,12.502,10.54
168.0,3909231.451,-1.603,1.598,2.697,4.2,3.181,3.129,12.495,10.532
169.0,3934506.806,-1.603,1.598,2.697,4.2,3.182,3.13,12.497,10.54
170.0,3959784.706,-1.603,1.598,2.697,4.2,3.179,3.125,12.481,10.511
171.0,3985522.407,-1.603,1.597,2.697,4.2,3.18,3.122,12.497,10.493
172.0,4011039.658,-1.603,1.597,2.697,4.2,3.18,3.123,12.494,10.498
173.0,4036458.603,-1.603,1.597,2.697,4.2,3.177,3.121,12.483,10.498
174.0,4062028.963,-1.603,1.598,2.697,4.2,3.171,3.116,12.465,10.461
175.0,4087657.351,-1.603,1.597,2.697,4.2,3.174,3.118,12.48,10.48
176.0,4113242.801,-1.603,1.598,2.697,4.2,3.174,3.118,12.474,10.479
177.0,4138854.262,-1.603,1.598,2.697,4.2,3.165,3.113,12.438,10.445
178.0,4164643.762,-1.603,1.597,2.697,4.2,3.158,3.111,12.424,10.435
179.0,4190088.818,-1.603,1.597,2.697,4.2,3.155,3.111,12.409,10.439
180.0,4215606.493,-1.603,1.598,2.697,4.2,3.159,3.114,12.416,10.45
181.0,4241002.075,-1.603,1.597,2.697,4.2,3.153,3.108,12.398,10.434
182.0,4266463.845,-1.603,1.598,2.697,4.2,3.154,3.108,12.403,10.422
183.0,4291910.171,-1.603,1.598,2.697,4.2,3.152,3.111,12.397,10.442
184.0,4317572.275,-1.609,1.598,2.697,4.2,3.153,3.106,12.398,10.416
185.0,4343526.954,-1.604,1.597,2.697,4.2,3.146,3.104,12.385,10.407
186.0,4369134.786,-1.603,1.598,2.697,4.2,3.148,3.104,12.38,10.413
187.0,4394746.427,-1.603,1.598,2.697,4.2,3.148,3.102,12.38,10.407
188.0,4420480.968,-1.603,1.597,2.697,4.2,3.145,3.099,12.371,10.387
189.0,4446254.977,-1.603,1.597,2.697,4.2,3.143,3.099,12.368,10.391
190.0,4471438.406,-1.603,1.597,2.697,4.2,3.142,3.089,12.358,10.356
191.0,4497223.652,-1.603,1.598,2.697,4.2,3.13,3.09,12.315,10.333
192.0,4523156.825,-1.603,1.598,2.697,4.2,3.135,3.09,12.347,10.341
193.0,4549097.261,-1.603,1.597,2.697,4.2,3.133,3.087,12.334,10.327
194.0,4575151.954,-1.603,1.598,2.697,4.2,3.135,3.087,12.34,10.319
195.0,4601476.638,-1.603,1.598,2.697,4.2,3.13,3.087,12.337,10.328
196.0,4627475.553,-1.603,1.597,2.697,4.2,3.13,3.084,12.325,10.317
197.0,4653623.954,-1.603,1.598,2.697,4.2,3.13,3.082,12.33,10.307
198.0,4680010.984,-1.603,1.597,2.697,4.2,3.121,3.073,12.299,10.255
199.0,4706269.877,-1.603,1.598,2.697,4.2,3.119,3.077,12.298,10.283
200.0,4732492.263,-1.603,1.598,2.697,4.2,3.122,3.077,12.3,10.287
201.0,4759258.685,-1.603,1.598,2.697,4.2,3.117,3.067,12.284,10.217
202.0,4786031.113,-1.603,1.598,2.697,4.2,3.116,3.074,12.298,10.269
203.0,4812272.503,-1.603,1.597,2.697,4.2,3.119,3.07,12.291,10.257
204.0,4838881.802,-1.603,1.597,2.697,4.2,3.113,3.066,12.28,10.229
205.0,4865491.881,-1.603,1.597,2.697,4.2,3.117,3.072,12.293,10.255
206.0,4891944.139,-1.603,1.597,2.697,4.2,3.115,3.07,12.282,10.256
207.0,4918178.999,-1.603,1.597,2.697,4.2,3.113,3.069,12.266,10.249
208.0,4944463.621,-1.603,1.597,2.697,4.2,3.115,3.069,12.27,10.256
209.0,4970785.472,-1.603,1.598,2.697,4.2,3.115,3.067,12.27,10.242
210.0,4997189.18,-1.603,1.597,2.697,4.2,3.109,3.061,12.253,10.212
211.0,5024071.336,-1.603,1.597,2.697,4.2,3.109,3.06,12.262,10.201
212.0,5050756.557,-1.603,1.597,2.697,4.2,3.109,3.06,12.26,10.21
213.0,5077412.264,-1.603,1.597,2.697,4.2,3.103,3.058,12.237,10.196
214.0,5104312.701,-1.603,1.598,2.697,4.2,3.106,3.056,12.251,10.181
215.0,5131042.239,-1.603,1.597,2.697,4.2,3.097,3.054,12.222,10.175
216.0,5157715.386,-1.603,1.597,2.697,4.2,3.098,3.053,12.222,10.174
217.0,5184265.703,-1.618,1.597,2.697,4.2,3.1,3.057,12.224,10.2
218.0,5210815.718,-1.603,1.597,2.697,4.2,3.104,3.056,12.236,10.197
219.0,5237348.614,-1.604,1.597,2.697,4.2,3.101,3.051,12.227,10.177
220.0,5264424.408,-1.603,1.597,2.697,4.2,3.098,3.047,12.222,10.143
221.0,5291539.985,-1.603,1.597,2.697,4.2,3.095,3.047,12.221,10.145
222.0,5318535.054,-1.603,1.598,2.697,4.2,3.093,3.044,12.211,10.139
223.0,5345544.896,-1.603,1.597,2.697,4.2,3.091,3.043,12.199,10.134
224.0,5372515.502,-1.603,1.597,2.697,4.2,3.085,3.038,12.181,10.105
225.0,5399528.752,-1.603,1.597,2.697,4.2,3.084,3.04,12.178,10.114
226.0,5426728.321,-1.603,1.597,2.697,4.2,3.085,3.04,12.179,10.113
227.0,5453969.194,-1.603,1.597,2.697,4.2,3.082,3.032,12.177,10.071
228.0,5481024.121,-1.603,1.597,2.697,4.2,3.079,3.034,12.163,10.096
229.0,5508073.058,-1.603,1.597,2.697,4.2,3.079,3.031,12.158,10.086
230.0,5535151.689,-1.603,1.597,2.697,4.2,3.076,3.028,12.151,10.066
231.0,5562203.035,-1.603,1.598,2.697,4.2,3.072,3.026,12.135,10.064
232.0,5589133.249,-1.603,1.598,2.697,4.2,3.07,3.025,12.128,10.053
233.0,5616113.408,-1.603,1.598,2.697,4.2,3.068,3.02,12.12,10.034
234.0,5643435.616,-1.603,1.598,2.697,4.2,3.068,3.017,12.126,9.997
235.0,5670655.698,-1.603,1.597,2.697,4.2,3.07,3.024,12.134,10.045
236.0,5697683.585,-1.603,1.598,2.697,4.2,3.079,3.031,12.157,10.098
237.0,5724791.118,-1.604,1.598,2.697,4.2,3.074,3.03,12.138,10.079
238.0,5751860.412,-1.603,1.598,2.697,4.2,3.074,3.021,12.14,10.042
239.0,5778731.907,-1.603,1.598,2.697,4.2,3.071,3.029,12.132,10.096
240.0,5805277.285,-1.603,1.597,2.697,4.2,3.07,3.024,12.107,10.072
241.0,5832038.207,-1.603,1.598,2.697,4.2,3.071,3.026,12.115,10.079
242.0,5858900.925,-1.603,1.597,2.697,4.2,3.07,3.022,12.111,10.066
243.0,5886555.009,-1.603,1.597,2.697,4.2,3.06,3.011,12.094,9.988
244.0,5913926.162,-1.603,1.598,2.697,4.2,3.055,3.009,12.081,9.981
245.0,5941496.893,-1.603,1.597,2.697,4.2,3.055,3.008,12.079,9.977
246.0,5969232.919,-1.603,1.598,2.697,4.2,3.051,3.003,12.072,9.952
247.0,5997138.387,-1.603,1.597,2.697,4.2,3.051,3.005,12.075,9.957
248.0,6024605.098,-1.604,1.597,2.697,4.2,3.049,3.003,12.063,9.96
249.0,6052350.128,-1.603,1.597,2.697,4.2,3.05,2.998,12.066,9.927
250.0,6080046.694,-1.604,1.597,2.697,4.2,3.047,2.996,12.058,9.927
251.0,6107791.182,-1.603,1.597,2.697,4.2,3.04,2.993,12.032,9.906
252.0,6135389.955,-1.603,1.597,2.697,4.2,3.041,2.992,12.031,9.914
253.0,6163091.92,-1.609,1.597,2.697,4.2,3.05,2.998,12.071,9.951
254.0,6190476.879,-1.603,1.598,2.697,4.2,3.041,2.996,12.026,9.938
255.0,6218002.611,-1.603,1.598,2.697,4.2,3.033,2.99,11.996,9.903
256.0,6245624.288,-1.603,1.597,2.697,4.2,3.036,2.989,12.013,9.904
257.0,6273218.665,-1.603,1.597,2.697,4.2,3.036,2.992,12.013,9.921
258.0,6300496.874,-1.603,1.598,2.697,4.2,3.033,2.985,11.997,9.893
259.0,6328388.737,-1.603,1.597,2.697,4.2,3.032,2.985,12.002,9.89
260.0,6356054.781,-1.603,1.598,2.697,4.2,3.033,2.982,12.004,9.877
261.0,6383768.046,-1.603,1.598,2.697,4.2,3.029,2.98,11.991,9.867
262.0,6411556.648,-1.603,1.597,2.697,4.2,3.027,2.975,11.986,9.85
263.0,6439418.547,-1.603,1.597,2.697,4.2,3.022,2.976,11.98,9.846
264.0,6467292.691,-1.603,1.597,2.697,4.2,3.023,2.974,11.973,9.838
265.0,6495312.62,-1.603,1.597,2.697,4.2,3.027,2.979,11.994,9.86
266.0,6522847.964,-1.604,1.597,2.697,4.2,3.023,2.976,11.957,9.853
267.0,6550547.974,-1.603,1.597,2.697,4.2,3.021,2.975,11.956,9.852
268.0,6578211.593,-1.603,1.597,2.697,4.2,3.022,2.973,11.96,9.847
269.0,6605839.92,-1.604,1.633,2.697,4.2,3.018,2.971,11.944,9.84
270.0,6633595.53,-1.603,1.597,2.697,4.2,3.017,2.971,11.944,9.84
271.0,6661303.258,-1.603,1.597,2.697,4.2,3.02,2.974,11.958,9.861
272.0,6688634.447,-1.603,1.598,2.697,4.2,3.017,2.972,11.934,9.852
273.0,6716041.387,-1.604,1.598,2.697,4.2,3.013,2.965,11.919,9.817
274.0,6743840.282,-1.603,1.598,2.697,4.2,3.008,2.961,11.914,9.799
275.0,6771688.931,-1.603,1.598,2.697,4.2,3.007,2.959,11.908,9.785
276.0,6799263.001,-1.603,1.597,2.697,4.2,3.001,2.955,11.887,9.772
277.0,6827297.749,-1.633,1.598,2.697,4.2,3.004,2.958,11.901,9.781
278.0,6855013.747,-1.603,1.597,2.697,4.2,3.001,2.954,11.891,9.767
279.0,6882709.302,-1.603,1.597,2.697,4.2,2.996,2.952,11.871,9.756
280.0,6910588.658,-1.603,1.597,2.697,4.2,2.998,2.952,11.878,9.757
281.0,6938446.628,-1.604,1.597,2.697,4.2,2.998,2.951,11.88,9.754
282.0,6965991.385,-1.603,1.597,2.697,4.2,2.991,2.945,11.852,9.733
283.0,6993630.83,-1.603,1.598,2.697,4.2,2.988,2.944,11.841,9.72
284.0,7021228.979,-1.604,1.629,2.697,4.2,2.988,2.943,11.846,9.731
285.0,7048736.277,-1.604,1.597,2.697,4.2,2.984,2.941,11.827,9.714
286.0,7076619.051,-1.603,1.597,2.697,4.2,2.984,2.941,11.826,9.71
287.0,7104198.535,-1.603,1.598,2.697,4.2,2.983,2.933,11.828,9.683
288.0,7131744.554,-1.603,1.597,2.697,4.2,2.975,2.932,11.794,9.682
289.0,7159585.212,-1.603,1.597,2.697,4.2,2.977,2.935,11.802,9.689
290.0,7187305.886,-1.603,1.597,2.697,4.2,2.977,2.925,11.81,9.649
291.0,7208866.764,-1.603,1.597,2.7,4.2,2.971,2.5,11.786,8.506
292.0,7229147.994,-1.603,1.598,2.7,4.2,2.532,2.509,10.105,8.521
293.0,7248338.592,-1.604,1.597,2.7,4.2,2.523,2.466,10.063,8.38
294.0,7268666.323,-1.603,1.597,2.7,4.2,2.509,2.488,10.017,8.437
295.0,7288843.108,-1.647,1.597,2.697,4.2,2.518,2.483,10.05,8.427
296.0,7308788.381,-1.603,1.597,2.7,4.2,2.51,2.489,10.016,8.444
297.0,7328572.091,-1.603,1.597,2.7,4.2,2.516,2.462,10.034,8.358
298.0,7348060.581,-1.603,1.598,2.7,4.2,2.486,2.469,9.924,8.367
299.0,7367923.403,-1.604,1.598,2.7,4.2,2.502,2.467,9.99,8.369
300.0,7387915.469,-1.603,1.597,2.7,4.2,2.502,2.475,9.989,8.391
301.0,7407833.731,-1.603,1.597,2.7,4.2,2.503,2.463,9.991,8.359
302.0,7427719.676,-1.646,1.597,2.697,4.2,2.491,2.445,9.946,8.297
303.0,7447867.205,-1.603,1.597,2.7,4.2,2.48,2.457,9.913,8.33
304.0,7467860.162,-1.603,1.597,2.7,4.2,2.488,2.463,9.934,8.354
305.0,7487963.078,-1.604,1.597,2.7,4.2,2.497,2.469,9.968,8.372
306.0,7507821.544,-1.603,1.597,2.7,4.2,2.497,2.445,9.964,8.294
307.0,7527829.681,-1.603,1.597,2.7,4.2,2.476,2.449,9.892,8.302
308.0,7547535.055,-1.603,1.597,2.7,4.2,2.477,2.444,9.894,8.285
309.0,7567255.472,-1.604,1.597,2.7,4.2,2.478,2.447,9.895,8.301
310.0,7586746.212,-1.603,1.597,2.7,4.2,2.476,2.439,9.885,8.272
311.0,7606718.802,-1.603,1.597,2.7,4.2,2.472,2.436,9.877,8.253
312.0,7626717.008,-1.603,1.597,2.7,4.2,2.469,2.452,9.863,8.312
313.0,7646438.146,-1.603,1.597,2.7,4.2,2.48,2.447,9.903,8.296
314.0,7666325.618,-1.648,1.597,2.697,4.2,2.481,2.445,9.908,8.292
315.0,7686610.418,-1.603,1.597,2.7,4.2,2.49,2.433,9.947,8.245
316.0,7706679.073,-1.603,1.598,2.7,4.2,2.472,2.438,9.883,8.257
317.0,7727020.776,-1.603,1.597,2.7,4.2,2.487,2.439,9.935,8.263
318.0,7747296.874,-1.603,1.597,2.7,4.2,2.488,2.454,9.944,8.321
319.0,7767564.895,-1.603,1.597,2.7,4.2,2.506,2.463,10.004,8.366
320.0,7771261.82,1.596,1.597,3.431,4.153,1.64,0.0,6.369,0.0