File: Li-ion_Batteries/UL-PUR_N20-NA6_18650_NCA_23C_0-100_0.5-0.5C_f_cycle_data.csv
Cycle_Index,Test_Time (s),Min_Current (A),Max_Current (A),Min_Voltage (V),Max_Voltage (V),Charge_Capacity (Ah),Discharge_Capacity (Ah),Charge_Energy (Wh),Discharge_Energy (Wh)
1.0,8851.63,-1.6,1.6,2.7,4.191,0.011,3.332,0.023,11.7
2.0,28147.425,-1.6,1.6,2.7,4.2,3.339,3.32,12.882,11.677
3.0,47444.14,-1.6,1.601,2.7,4.2,3.325,3.318,12.821,11.665
4.0,66777.571,-1.6,1.601,2.7,4.2,3.323,3.318,12.81,11.661
5.0,80950.769,-1.6,1.601,2.7,4.2,2.843,2.843,10.798,9.819
6.0,100376.462,-1.6,1.601,2.7,4.2,3.323,3.317,12.813,11.65
7.0,119812.159,-1.6,1.601,2.7,4.2,3.322,3.317,12.812,11.648
8.0,139283.159,-1.6,1.601,2.7,4.2,3.321,3.316,12.811,11.643
9.0,158771.759,-1.6,1.601,2.7,4.2,3.322,3.316,12.813,11.64
10.0,178318.627,-1.6,1.6,2.7,4.2,3.32,3.316,12.809,11.631
11.0,197881.17,-1.6,1.601,2.7,4.2,3.321,3.317,12.812,11.634
12.0,217498.421,-1.6,1.601,2.7,4.2,3.321,3.315,12.812,11.622
13.0,237098.652,-1.6,1.601,2.7,4.2,3.319,3.316,12.81,11.626
14.0,256753.682,-1.6,1.602,2.7,4.2,3.32,3.314,12.811,11.614
15.0,276475.362,-1.6,1.601,2.7,4.2,3.319,3.314,12.809,11.609
16.0,296250.655,-1.6,1.601,2.7,4.2,3.318,3.313,12.808,11.6
17.0,315993.458,-1.6,1.601,2.7,4.2,3.317,3.314,12.807,11.603
18.0,335806.417,-1.6,1.601,2.7,4.2,3.318,3.312,12.806,11.591
19.0,355679.271,-1.6,1.601,2.7,4.2,3.317,3.311,12.806,11.583
20.0,375591.807,-1.6,1.601,2.7,4.2,3.315,3.311,12.804,11.577
21.0,395478.001,-1.6,1.601,2.7,4.2,3.315,3.311,12.802,11.577
22.0,409972.827,-1.6,1.601,2.7,4.2,2.816,2.815,10.706,9.654
23.0,429943.694,-1.6,1.601,2.7,4.2,3.314,3.309,12.804,11.565
24.0,449929.016,-1.6,1.601,2.7,4.2,3.314,3.309,12.801,11.562
25.0,469959.749,-1.6,1.601,2.7,4.2,3.313,3.308,12.799,11.554
26.0,490051.241,-1.6,1.601,2.7,4.2,3.312,3.306,12.797,11.542
27.0,510204.318,-1.6,1.601,2.7,4.2,3.31,3.305,12.796,11.535
28.0,530380.168,-1.6,1.601,2.7,4.2,3.309,3.306,12.793,11.532
29.0,550560.265,-1.6,1.601,2.7,4.2,3.31,3.305,12.795,11.532
30.0,570716.823,-1.6,1.601,2.7,4.2,3.31,3.305,12.793,11.532
31.0,590874.423,-1.6,1.601,2.7,4.2,3.309,3.304,12.789,11.523
32.0,611105.479,-1.6,1.601,2.7,4.2,3.308,3.303,12.787,11.517
33.0,631413.703,-1.6,1.601,2.7,4.2,3.308,3.303,12.79,11.51
34.0,651707.702,-1.6,1.601,2.7,4.2,3.307,3.302,12.785,11.506
35.0,672075.885,-1.6,1.601,2.7,4.2,3.306,3.301,12.784,11.498
36.0,692571.028,-1.6,1.601,2.7,4.2,3.304,3.298,12.781,11.475
37.0,713047.066,-1.6,1.601,2.7,4.2,3.302,3.298,12.777,11.479
38.0,733564.79,-1.6,1.601,2.7,4.2,3.302,3.297,12.778,11.471
39.0,754116.14,-1.6,1.601,2.7,4.2,3.302,3.297,12.776,11.472
40.0,774709.065,-1.6,1.601,2.7,4.2,3.301,3.294,12.773,11.454
41.0,795356.454,-1.6,1.601,2.7,4.2,3.298,3.294,12.769,11.447
42.0,816004.185,-1.6,1.601,2.7,4.2,3.298,3.293,12.767,11.443
43.0,836662.403,-1.6,1.601,2.7,4.2,3.297,3.294,12.765,11.447
44.0,857341.718,-1.6,1.601,2.7,4.2,3.297,3.292,12.762,11.433
45.0,878100.731,-1.6,1.601,2.7,4.2,3.296,3.29,12.759,11.426
46.0,898976.25,-1.6,1.601,2.7,4.2,3.294,3.288,12.757,11.407
47.0,919796.294,-1.6,1.601,2.7,4.2,3.293,3.289,12.758,11.417
48.0,934386.978,-1.6,1.601,2.7,4.2,2.761,2.759,10.518,9.385
49.0,955314.778,-1.6,1.601,2.7,4.2,3.291,3.287,12.752,11.402
50.0,976271.719,-1.6,1.601,2.7,4.2,3.291,3.286,12.75,11.391
51.0,997292.902,-1.6,1.601,2.7,4.2,3.289,3.284,12.746,11.381
52.0,1018433.041,-1.6,1.601,2.7,4.2,3.288,3.282,12.743,11.365
53.0,1039686.737,-1.6,1.601,2.7,4.2,3.285,3.28,12.739,11.351
54.0,1060971.788,-1.6,1.601,2.7,4.2,3.284,3.28,12.739,11.351
55.0,1082195.551,-1.6,1.601,2.7,4.2,3.284,3.279,12.734,11.345
56.0,1103522.975,-1.6,1.601,2.7,4.2,3.283,3.277,12.731,11.331
57.0,1124891.86,-1.6,1.601,2.7,4.2,3.28,3.275,12.726,11.321
58.0,1146108.77,-1.6,1.601,2.7,4.2,3.281,3.278,12.73,11.346
59.0,1167474.176,-1.6,1.601,2.7,4.2,3.282,3.276,12.726,11.329
60.0,1188895.34,-1.6,1.601,2.7,4.2,3.279,3.274,12.724,11.313
61.0,1210277.554,-1.6,1.601,2.7,4.2,3.278,3.274,12.719,11.314
62.0,1231737.37,-1.6,1.601,2.7,4.2,3.278,3.272,12.716,11.302
63.0,1253328.605,-1.6,1.601,2.7,4.2,3.277,3.271,12.717,11.294
64.0,1274859.93,-1.6,1.601,2.7,4.2,3.276,3.271,12.713,11.296
65.0,1296425.918,-1.6,1.601,2.7,4.2,3.275,3.27,12.708,11.286
66.0,1317991.731,-1.6,1.601,2.7,4.2,3.274,3.268,12.705,11.279
67.0,1339763.392,-1.6,1.601,2.7,4.2,3.272,3.266,12.703,11.262
68.0,1361629.459,-1.6,1.601,2.7,4.2,3.271,3.265,12.704,11.253
69.0,1383639.422,-1.6,1.601,2.7,4.2,3.268,3.263,12.701,11.231
70.0,1405589.036,-1.6,1.601,2.7,4.2,3.267,3.262,12.695,11.233
71.0,1427591.474,-1.6,1.601,2.7,4.2,3.266,3.26,12.692,11.219
72.0,1449643.508,-1.6,1.601,2.7,4.2,3.265,3.26,12.69,11.22
73.0,1471704.344,-1.6,1.601,2.7,4.2,3.264,3.259,12.686,11.208
74.0,1493920.114,-1.6,1.601,2.7,4.2,3.264,3.259,12.691,11.216
75.0,1516191.542,-1.6,1.601,2.7,4.2,3.262,3.257,12.685,11.193
76.0,1538160.682,-1.6,1.601,2.7,4.2,3.262,3.259,12.679,11.213
77.0,1560159.108,-1.6,1.601,2.7,4.2,3.265,3.26,12.681,11.215
78.0,1582316.86,-1.6,1.601,2.7,4.2,3.263,3.258,12.68,11.202
79.0,1597105.051,-1.6,1.601,2.7,4.2,2.691,2.689,10.279,9.054
80.0,1611878.362,-1.6,1.601,2.7,4.2,2.684,2.683,10.254,9.029
81.0,1634418.849,-1.6,1.601,2.7,4.2,3.261,3.254,12.675,11.169
82.0,1657063.406,-1.6,1.601,2.7,4.2,3.259,3.251,12.671,11.156
83.0,1679927.962,-1.6,1.601,2.7,4.2,3.254,3.248,12.659,11.132
84.0,1702961.868,-1.6,1.601,2.7,4.2,3.252,3.245,12.656,11.124
85.0,1726107.441,-1.6,1.601,2.7,4.2,3.249,3.241,12.647,11.097
86.0,1749338.155,-1.6,1.601,2.7,4.2,3.245,3.237,12.637,11.08
87.0,1772607.366,-1.6,1.601,2.7,4.2,3.241,3.233,12.623,11.061
88.0,1796021.254,-1.6,1.601,2.7,4.2,3.238,3.231,12.616,11.049
89.0,1819489.726,-1.6,1.601,2.7,4.2,3.233,3.226,12.603,11.022
90.0,1841805.343,-1.6,1.601,2.7,4.2,3.215,3.209,12.525,10.968
91.0,1865182.864,-1.6,1.602,2.7,4.2,3.227,3.219,12.579,10.999
92.0,1888622.757,-1.6,1.601,2.7,4.2,3.223,3.216,12.568,10.987
93.0,1912100.615,-1.6,1.601,2.7,4.2,3.221,3.212,12.558,10.97
94.0,1935481.284,-1.6,1.601,2.7,4.2,3.216,3.208,12.54,10.95
95.0,1958989.945,-1.6,1.601,2.7,4.2,3.213,3.206,12.531,10.942
96.0,1974044.429,-1.6,1.601,2.7,4.2,2.608,2.611,9.994,8.724
97.0,1997927.798,-1.6,1.601,2.7,4.2,3.211,3.197,12.533,10.886
98.0,2021815.178,-1.6,1.601,2.7,4.2,3.203,3.194,12.507,10.878
99.0,2045293.961,-1.6,1.601,2.7,4.2,3.201,3.197,12.5,10.912
100.0,2068529.345,-1.6,1.601,2.7,4.2,3.203,3.196,12.487,10.914
101.0,2091984.299,-1.601,1.601,2.7,4.2,3.201,3.194,12.48,10.905
102.0,2115320.841,-1.6,1.601,2.7,4.2,3.196,3.188,12.467,10.874
103.0,2138714.274,-1.6,1.601,2.7,4.2,3.195,3.19,12.471,10.89
104.0,2162165.589,-1.601,1.602,2.7,4.2,3.193,3.187,12.456,10.869
105.0,2185632.845,-1.6,1.601,2.7,4.201,3.191,3.185,12.454,10.862
106.0,2209097.68,-1.6,1.601,2.7,4.201,3.189,3.183,12.445,10.852
107.0,2232848.688,-1.601,1.601,2.7,4.2,3.183,3.174,12.426,10.799
108.0,2256835.622,-1.6,1.601,2.7,4.2,3.178,3.171,12.422,10.781
109.0,2280845.275,-1.6,1.601,2.7,4.2,3.176,3.168,12.414,10.769
110.0,2295852.939,-1.6,1.601,2.7,4.2,2.537,2.54,9.735,8.44
111.0,2320001.087,-1.6,1.601,2.7,4.2,3.176,3.164,12.426,10.748
112.0,2344256.713,-1.6,1.601,2.7,4.2,3.168,3.158,12.39,10.718
113.0,2368449.813,-1.6,1.601,2.7,4.2,3.163,3.156,12.378,10.715
114.0,2392555.737,-1.6,1.601,2.7,4.2,3.161,3.153,12.366,10.707
115.0,2416710.152,-1.6,1.601,2.7,4.2,3.159,3.151,12.36,10.698
116.0,2441015.149,-1.6,1.601,2.7,4.2,3.156,3.148,12.351,10.68
117.0,2465350.875,-1.6,1.601,2.7,4.2,3.152,3.144,12.338,10.657
118.0,2489541.471,-1.6,1.601,2.7,4.2,3.148,3.142,12.323,10.657
119.0,2513726.835,-1.6,1.601,2.7,4.2,3.15,3.144,12.326,10.675
120.0,2537926.227,-1.6,1.601,2.7,4.2,3.149,3.142,12.321,10.664
121.0,2562193.8,-1.6,1.601,2.7,4.2,3.146,3.138,12.311,10.643
122.0,2586468.565,-1.6,1.601,2.7,4.2,3.143,3.137,12.304,10.645
123.0,2610660.808,-1.6,1.601,2.7,4.2,3.14,3.133,12.291,10.62
124.0,2634892.934,-1.6,1.601,2.7,4.2,3.138,3.132,12.287,10.618
125.0,2659082.969,-1.6,1.601,2.7,4.2,3.136,3.128,12.277,10.605
126.0,2683424.165,-1.6,1.601,2.7,4.2,3.133,3.127,12.27,10.59
127.0,2707787.881,-1.6,1.601,2.7,4.2,3.132,3.124,12.266,10.583
128.0,2732186.056,-1.6,1.601,2.7,4.2,3.128,3.121,12.256,10.569
129.0,2756773.131,-1.6,1.601,2.7,4.2,3.127,3.119,12.253,10.556
130.0,2781487.226,-1.6,1.601,2.7,4.2,3.12,3.111,12.229,10.505
131.0,2806257.51,-1.6,1.601,2.7,4.2,3.118,3.111,12.228,10.515
132.0,2830977.21,-1.6,1.601,2.7,4.2,3.116,3.11,12.222,10.51
133.0,2855454.732,-1.6,1.601,2.7,4.2,3.117,3.112,12.221,10.535
134.0,2879903.641,-1.6,1.601,2.7,4.2,3.119,3.112,12.221,10.538
135.0,2904368.277,-1.6,1.601,2.7,4.2,3.114,3.107,12.204,10.515
136.0,2928708.906,-1.6,1.601,2.7,4.2,3.112,3.106,12.193,10.514
137.0,2953151.951,-1.6,1.601,2.7,4.2,3.11,3.104,12.19,10.504
138.0,2977550.103,-1.6,1.601,2.7,4.2,3.108,3.101,12.182,10.493
139.0,3001878.956,-1.6,1.601,2.7,4.2,3.106,3.099,12.173,10.489
140.0,3026258.471,-1.6,1.601,2.7,4.2,3.105,3.1,12.169,10.494
141.0,3050793.394,-1.6,1.601,2.7,4.2,3.104,3.096,12.162,10.469
142.0,3075508.361,-1.6,1.601,2.7,4.2,3.098,3.089,12.148,10.431
143.0,3100338.817,-1.6,1.601,2.7,4.2,3.092,3.086,12.139,10.413
144.0,3125241.957,-1.6,1.601,2.7,4.2,3.091,3.084,12.132,10.4
145.0,3150164.748,-1.6,1.601,2.7,4.2,3.088,3.081,12.124,10.386
146.0,3175071.193,-1.6,1.601,2.7,4.2,3.083,3.076,12.105,10.367
147.0,3199967.383,-1.6,1.601,2.7,4.2,3.081,3.074,12.101,10.36
148.0,3224978.646,-1.6,1.601,2.7,4.2,3.077,3.07,12.091,10.335
149.0,3249973.41,-1.6,1.601,2.7,4.2,3.074,3.068,12.079,10.329
150.0,3275074.121,-1.6,1.601,2.7,4.2,3.073,3.066,12.074,10.319
151.0,3300242.742,-1.6,1.601,2.7,4.2,3.07,3.063,12.063,10.314
152.0,3325484.409,-1.6,1.601,2.7,4.2,3.068,3.062,12.059,10.303
153.0,3339928.244,-1.6,1.601,2.7,4.2,2.383,2.388,9.184,7.847
154.0,3354241.714,-1.6,1.601,2.7,4.2,2.38,2.384,9.175,7.841
155.0,3379470.93,-1.6,1.601,2.7,4.2,3.07,3.056,12.072,10.29
156.0,3404770.169,-1.6,1.601,2.7,4.2,3.064,3.052,12.046,10.267
157.0,3429870.111,-1.6,1.601,2.7,4.2,3.054,3.046,12.007,10.247
158.0,3455045.194,-1.6,1.601,2.7,4.2,3.052,3.046,11.995,10.25
159.0,3480304.986,-1.6,1.601,2.7,4.2,3.05,3.043,11.994,10.236
160.0,3505608.915,-1.6,1.601,2.7,4.2,3.049,3.042,11.986,10.223
161.0,3530593.785,-1.6,1.601,2.7,4.2,3.045,3.037,11.973,10.213
162.0,3551030.783,-1.6,1.601,2.7,4.2,3.042,2.68,11.96,9.241
163.0,3570278.492,-1.6,1.601,2.7,4.2,2.684,2.664,10.621,9.184
164.0,3589476.705,-1.6,1.601,2.7,4.2,2.669,2.655,10.56,9.15
165.0,3608794.407,-1.6,1.601,2.7,4.2,2.66,2.662,10.53,9.172
166.0,3627870.966,-1.6,1.601,2.7,4.2,2.663,2.648,10.537,9.121
167.0,3647097.102,-1.6,1.601,2.7,4.2,2.655,2.647,10.512,9.118
168.0,3666237.054,-1.6,1.601,2.7,4.2,2.65,2.645,10.49,9.11
169.0,3685278.843,-1.6,1.601,2.653,4.2,2.648,2.64,10.479,9.091
170.0,3704343.791,-1.6,1.601,2.7,4.2,2.644,2.628,10.468,9.049
171.0,3723349.259,-1.6,1.601,2.7,4.2,2.632,2.626,10.424,9.043
172.0,3742541.859,-1.6,1.601,2.7,4.2,2.633,2.631,10.431,9.057
173.0,3761665.765,-1.6,1.601,2.7,4.2,2.636,2.63,10.437,9.054
174.0,3780726.914,-1.6,1.601,2.7,4.2,2.632,2.624,10.421,9.03
175.0,3790175.384,-1.6,1.601,2.546,4.2,1.96,1.971,7.605,6.635
176.0,3809503.562,-1.6,1.601,2.7,4.2,2.642,2.619,10.471,9.017
177.0,3828616.517,-1.601,1.601,2.7,4.2,2.624,2.623,10.397,9.025
178.0,3847559.049,-1.6,1.601,2.7,4.2,2.626,2.616,10.4,9.0
179.0,3866521.018,-1.6,1.601,2.7,4.2,2.621,2.608,10.381,8.976
180.0,3885556.677,-1.6,1.601,2.7,4.2,2.612,2.612,10.351,8.983
181.0,3904581.093,-1.6,1.601,2.7,4.2,2.618,2.607,10.372,8.968
182.0,3923620.322,-1.6,1.602,2.7,4.2,2.612,2.616,10.351,9.002
183.0,3942528.548,-1.6,1.601,2.7,4.2,2.62,2.603,10.381,8.957
184.0,3961469.959,-1.6,1.601,2.7,4.2,2.607,2.601,10.33,8.95
185.0,3980432.311,-1.6,1.601,2.548,4.2,2.607,2.598,10.332,8.936
186.0,3999425.787,-1.6,1.601,2.7,4.2,2.604,2.604,10.32,8.954
187.0,4018369.407,-1.6,1.601,2.7,4.2,2.608,2.597,10.337,8.933
188.0,4037302.984,-1.6,1.601,2.7,4.2,2.603,2.596,10.32,8.93
189.0,4056223.242,-1.6,1.601,2.7,4.2,2.599,2.592,10.305,8.91
190.0,4075144.939,-1.6,1.601,2.683,4.2,2.596,2.597,10.294,8.928
191.0,4094154.967,-1.6,1.601,2.7,4.2,2.605,2.597,10.328,8.934
192.0,4113188.071,-1.6,1.601,2.7,4.2,2.601,2.608,10.314,8.973
193.0,4131853.354,-1.601,1.601,2.7,4.201,2.615,2.545,10.358,8.772
194.0,4150776.294,-1.6,1.601,2.7,4.201,2.626,2.619,10.399,9.019
195.0,4169666.347,-1.6,1.601,2.7,4.201,2.624,2.617,10.388,9.011
196.0,4188587.501,-1.6,1.601,2.7,4.201,2.623,2.618,10.384,9.014
197.0,4207526.514,-1.6,1.601,2.7,4.201,2.624,2.627,10.388,9.047
198.0,4226434.564,-1.6,1.601,2.7,4.201,2.629,2.621,10.404,9.022
199.0,4245417.722,-1.6,1.601,2.7,4.2,2.608,2.534,10.318,8.672
200.0,4264482.618,-1.6,1.6,2.7,4.2,2.535,2.522,10.086,8.62
201.0,4283658.456,-1.6,1.6,2.7,4.2,2.525,2.541,10.051,8.688
202.0,4302727.956,-1.6,1.601,2.7,4.2,2.563,2.57,10.184,8.82
203.0,4321673.393,-1.6,1.601,2.7,4.2,2.577,2.577,10.232,8.847
204.0,4340601.908,-1.6,1.601,2.7,4.2,2.583,2.581,10.25,8.866
205.0,4359399.928,-1.6,1.601,2.7,4.2,2.585,2.565,10.256,8.803
206.0,4378349.98,-1.6,1.601,2.7,4.2,2.566,2.554,10.191,8.759
207.0,4397460.452,-1.6,1.601,2.7,4.2,2.561,2.561,10.177,8.786
208.0,4416438.181,-1.6,1.601,2.7,4.2,2.563,2.547,10.183,8.729
209.0,4435469.029,-1.6,1.601,2.7,4.2,2.551,2.541,10.14,8.702
210.0,4454509.754,-1.6,1.601,2.7,4.2,2.544,2.538,10.116,8.691
211.0,4473495.996,-1.6,1.601,2.7,4.2,2.548,2.553,10.124,8.75
212.0,4492443.162,-1.6,1.601,2.7,4.2,2.559,2.557,10.165,8.763
213.0,4511430.125,-1.6,1.601,2.7,4.2,2.562,2.561,10.178,8.777
214.0,4530348.955,-1.6,1.601,2.7,4.2,2.568,2.562,10.197,8.789
215.0,4549311.31,-1.6,1.601,2.7,4.2,2.567,2.572,10.196,8.823
216.0,4568380.403,-1.6,1.601,2.7,4.2,2.576,2.574,10.23,8.829
217.0,4587333.518,-1.6,1.601,2.7,4.2,2.577,2.567,10.226,8.803
218.0,4606373.571,-1.6,1.601,2.696,4.2,2.571,2.558,10.209,8.769
219.0,4625177.409,-1.6,1.601,2.7,4.2,2.56,2.536,10.165,8.68
220.0,4644228.166,-1.6,1.601,2.7,4.2,2.541,2.539,10.109,8.692
221.0,4663268.181,-1.6,1.601,2.7,4.2,2.544,2.538,10.117,8.691
222.0,4681251.872,-1.6,1.601,3.117,4.2,2.541,2.176,10.105,7.623