File: Li-ion_Batteries/UL-PUR_N15-OV3_18650_NCA_23C_0-100_0.5-0.5C_c_cycle_data.csv
Cycle_Index,Test_Time (s),Min_Current (A),Max_Current (A),Min_Voltage (V),Max_Voltage (V),Charge_Capacity (Ah),Discharge_Capacity (Ah),Charge_Energy (Wh),Discharge_Energy (Wh)
1.0,9486.796,-1.6,1.599,2.7,4.254,0.05,3.313,0.206,11.659
2.0,28658.603,-1.6,1.6,2.7,4.2,3.297,3.29,12.711,11.588
3.0,42708.815,-1.6,1.6,2.7,4.2,2.816,2.814,10.689,9.733
4.0,61861.124,-1.6,1.6,2.7,4.201,3.288,3.287,12.682,11.575
5.0,81036.039,-1.6,1.6,2.7,4.2,3.289,3.282,12.679,11.552
6.0,100246.475,-1.6,1.6,2.7,4.2,3.285,3.281,12.663,11.542
7.0,119485.988,-1.6,1.6,2.7,4.2,3.283,3.279,12.658,11.535
8.0,138756.988,-1.6,1.6,2.7,4.2,3.281,3.278,12.653,11.527
9.0,158050.416,-1.6,1.6,2.7,4.2,3.28,3.277,12.65,11.52
10.0,177382.216,-1.6,1.6,2.7,4.2,3.279,3.277,12.648,11.515
11.0,196751.657,-1.6,1.6,2.7,4.2,3.279,3.275,12.647,11.505
12.0,216188.493,-1.6,1.6,2.7,4.2,3.277,3.274,12.643,11.494
13.0,235630.289,-1.6,1.623,2.7,4.201,3.277,3.275,12.643,11.498
14.0,250003.683,-1.6,1.6,2.7,4.2,2.808,2.805,10.674,9.67
15.0,269506.7,-1.6,1.6,2.7,4.2,3.277,3.274,12.646,11.488
16.0,289056.538,-1.6,1.6,2.7,4.201,3.277,3.273,12.643,11.481
17.0,308631.827,-1.6,1.6,2.7,4.2,3.275,3.272,12.639,11.476
18.0,323052.192,-1.6,1.6,2.7,4.2,2.797,2.8,10.633,9.638
19.0,342698.257,-1.601,1.6,2.7,4.2,3.276,3.272,12.645,11.468
20.0,362399.835,-1.6,1.6,2.7,4.201,3.274,3.271,12.638,11.461
21.0,382114.914,-1.601,1.6,2.7,4.2,3.273,3.27,12.637,11.454
22.0,396620.076,-1.6,1.6,2.7,4.2,2.791,2.792,10.613,9.596
23.0,416402.324,-1.6,1.6,2.7,4.2,3.273,3.27,12.641,11.449
24.0,436173.232,-1.6,1.6,2.7,4.2,3.272,3.269,12.637,11.446
25.0,456018.408,-1.6,1.6,2.7,4.2,3.271,3.267,12.633,11.43
26.0,475965.004,-1.6,1.6,2.7,4.2,3.27,3.267,12.633,11.429
27.0,495989.117,-1.6,1.6,2.7,4.2,3.269,3.266,12.629,11.418
28.0,516031.42,-1.6,1.6,2.7,4.2,3.268,3.265,12.627,11.41
29.0,536137.446,-1.6,1.6,2.7,4.2,3.266,3.264,12.625,11.401
30.0,556281.185,-1.601,1.6,2.7,4.2,3.266,3.263,12.624,11.398
31.0,576417.215,-1.6,1.6,2.7,4.2,3.265,3.263,12.622,11.395
32.0,596462.094,-1.6,1.6,2.7,4.2,3.266,3.266,12.625,11.412
33.0,616548.28,-1.6,1.6,2.7,4.2,3.267,3.264,12.625,11.403
34.0,636629.932,-1.6,1.6,2.7,4.2,3.266,3.264,12.623,11.399
35.0,656821.006,-1.6,1.6,2.7,4.2,3.265,3.263,12.621,11.387
36.0,676979.597,-1.6,1.6,2.7,4.2,3.265,3.263,12.62,11.391
37.0,697159.708,-1.6,1.6,2.7,4.2,3.265,3.262,12.621,11.385
38.0,717463.0,-1.6,1.6,2.7,4.2,3.264,3.26,12.615,11.366
39.0,737795.508,-1.6,1.6,2.7,4.2,3.261,3.259,12.615,11.363
40.0,758132.815,-1.6,1.6,2.7,4.2,3.262,3.259,12.614,11.36
41.0,778487.844,-1.6,1.6,2.7,4.2,3.261,3.258,12.612,11.356
42.0,798867.925,-1.6,1.6,2.7,4.2,3.26,3.257,12.607,11.347
43.0,819356.786,-1.6,1.6,2.7,4.2,3.258,3.255,12.605,11.335
44.0,839824.523,-1.6,1.6,2.7,4.2,3.258,3.256,12.604,11.338
45.0,854590.943,-1.6,1.6,2.7,4.2,2.757,2.758,10.5,9.417
46.0,875015.551,-1.6,1.6,2.7,4.2,3.258,3.256,12.606,11.339
47.0,895546.003,-1.6,1.6,2.7,4.2,3.257,3.253,12.601,11.323
48.0,916156.346,-1.6,1.6,2.7,4.2,3.256,3.252,12.599,11.315
49.0,936825.624,-1.6,1.6,2.7,4.2,3.254,3.25,12.595,11.299
50.0,957343.646,-1.6,1.6,2.7,4.201,3.253,3.252,12.595,11.312
51.0,978078.66,-1.6,1.6,2.7,4.201,3.254,3.249,12.593,11.293
52.0,998809.091,-1.6,1.6,2.7,4.201,3.251,3.249,12.591,11.293
53.0,1019576.738,-1.6,1.6,2.7,4.2,3.251,3.248,12.588,11.283
54.0,1040386.585,-1.6,1.6,2.7,4.2,3.25,3.247,12.585,11.277
55.0,1061344.1,-1.6,1.6,2.7,4.2,3.248,3.243,12.579,11.251
56.0,1082353.595,-1.6,1.6,2.7,4.2,3.245,3.242,12.573,11.245
57.0,1103307.398,-1.6,1.6,2.7,4.2,3.244,3.243,12.574,11.253
58.0,1124247.061,-1.6,1.6,2.7,4.2,3.245,3.243,12.575,11.252
59.0,1145300.399,-1.6,1.6,2.7,4.2,3.244,3.241,12.569,11.232
60.0,1166384.442,-1.6,1.6,2.7,4.2,3.243,3.241,12.57,11.238
61.0,1187201.364,-1.6,1.6,2.7,4.2,3.245,3.244,12.572,11.258
62.0,1208197.452,-1.601,1.6,2.7,4.201,3.245,3.241,12.572,11.231
63.0,1229145.4,-1.601,1.6,2.7,4.2,3.242,3.241,12.565,11.233
64.0,1250143.653,-1.6,1.6,2.7,4.201,3.243,3.24,12.566,11.23
65.0,1271275.697,-1.6,1.6,2.7,4.2,3.241,3.238,12.563,11.22
66.0,1286223.34,-1.6,1.6,2.7,4.2,2.724,2.721,10.391,9.239
67.0,1307292.011,-1.6,1.6,2.7,4.201,3.24,3.238,12.559,11.217
68.0,1328374.031,-1.6,1.6,2.7,4.201,3.242,3.238,12.562,11.217
69.0,1349380.85,-1.6,1.6,2.7,4.201,3.24,3.238,12.558,11.217
70.0,1370551.239,-1.6,1.6,2.7,4.2,3.239,3.235,12.555,11.201
71.0,1391775.73,-1.6,1.6,2.7,4.201,3.237,3.233,12.55,11.186
72.0,1413155.13,-1.6,1.6,2.7,4.2,3.234,3.23,12.545,11.164
73.0,1434497.107,-1.6,1.6,2.7,4.2,3.233,3.232,12.544,11.177
74.0,1455874.76,-1.6,1.6,2.7,4.201,3.233,3.23,12.543,11.164
75.0,1477300.387,-1.6,1.6,2.7,4.201,3.232,3.23,12.54,11.164
76.0,1498735.465,-1.6,1.6,2.7,4.2,3.232,3.229,12.54,11.16
77.0,1520215.163,-1.6,1.6,2.7,4.2,3.23,3.228,12.533,11.15
78.0,1541708.431,-1.6,1.6,2.7,4.2,3.231,3.228,12.532,11.148
79.0,1563056.503,-1.6,1.6,2.7,4.2,3.23,3.229,12.536,11.162
80.0,1584335.591,-1.6,1.6,2.7,4.201,3.233,3.231,12.538,11.174
81.0,1605754.875,-1.6,1.6,2.7,4.201,3.232,3.228,12.534,11.151
82.0,1627147.508,-1.6,1.6,2.7,4.201,3.23,3.228,12.532,11.151
83.0,1648609.664,-1.6,1.6,2.7,4.2,3.229,3.226,12.529,11.14
84.0,1670096.414,-1.601,1.6,2.7,4.201,3.228,3.225,12.522,11.132
85.0,1691647.015,-1.6,1.6,2.7,4.201,3.228,3.224,12.524,11.125
86.0,1713458.197,-1.6,1.6,2.7,4.201,3.225,3.222,12.518,11.111
87.0,1735251.18,-1.6,1.6,2.7,4.201,3.224,3.221,12.517,11.104
88.0,1757133.399,-1.6,1.6,2.7,4.201,3.222,3.218,12.511,11.086
89.0,1778985.514,-1.6,1.6,2.7,4.201,3.219,3.216,12.504,11.077
90.0,1800938.96,-1.6,1.6,2.7,4.201,3.218,3.216,12.503,11.072
91.0,1822843.846,-1.6,1.6,2.7,4.201,3.216,3.214,12.497,11.063
92.0,1844869.582,-1.6,1.6,2.7,4.201,3.216,3.211,12.496,11.048
93.0,1866815.934,-1.601,1.6,2.7,4.201,3.213,3.211,12.488,11.047
94.0,1888694.706,-1.601,1.6,2.7,4.201,3.213,3.21,12.484,11.044
95.0,1910724.884,-1.6,1.6,2.7,4.201,3.212,3.208,12.481,11.03
96.0,1932784.269,-1.6,1.6,2.7,4.2,3.21,3.208,12.479,11.028
97.0,1954794.186,-1.601,1.6,2.7,4.201,3.209,3.207,12.474,11.026
98.0,1976826.237,-1.6,1.6,2.7,4.2,3.209,3.207,12.473,11.023
99.0,1998945.093,-1.6,1.6,2.7,4.201,3.208,3.204,12.47,11.009
100.0,2021283.239,-1.6,1.6,2.7,4.201,3.206,3.202,12.466,10.993
101.0,2043748.953,-1.601,1.6,2.7,4.2,3.202,3.202,12.465,10.992
102.0,2065955.218,-1.6,1.6,2.7,4.2,3.203,3.203,12.461,10.998
103.0,2087882.999,-1.6,1.6,2.7,4.201,3.208,3.207,12.47,11.033
104.0,2109888.114,-1.601,1.6,2.7,4.201,3.21,3.208,12.472,11.036
105.0,2131906.736,-1.6,1.6,2.7,4.201,3.208,3.205,12.467,11.018
106.0,2154112.427,-1.6,1.6,2.7,4.201,3.206,3.202,12.46,11.001
107.0,2176123.575,-1.6,1.6,2.7,4.201,3.206,3.205,12.461,11.023
108.0,2198233.227,-1.601,1.6,2.7,4.201,3.206,3.203,12.457,11.005
109.0,2220353.935,-1.601,1.6,2.7,4.201,3.205,3.201,12.455,11.0
110.0,2242499.163,-1.601,1.6,2.7,4.201,3.203,3.201,12.451,10.996
111.0,2264952.001,-1.601,1.6,2.7,4.201,3.2,3.194,12.437,10.949
112.0,2287545.688,-1.601,1.6,2.7,4.201,3.194,3.19,12.43,10.93
113.0,2310217.611,-1.6,1.6,2.7,4.201,3.192,3.19,12.427,10.925
114.0,2325416.618,-1.6,1.6,2.7,4.2,2.634,2.631,10.081,8.822
115.0,2348263.029,-1.6,1.6,2.7,4.2,3.185,3.185,12.405,10.901
116.0,2371055.835,-1.6,1.6,2.7,4.201,3.187,3.184,12.41,10.894
117.0,2393989.482,-1.6,1.6,2.7,4.2,3.186,3.183,12.409,10.893
118.0,2416809.122,-1.601,1.6,2.7,4.201,3.186,3.183,12.409,10.891
119.0,2439642.556,-1.6,1.6,2.7,4.201,3.183,3.18,12.396,10.876
120.0,2462476.167,-1.6,1.6,2.7,4.201,3.182,3.18,12.393,10.872
121.0,2485399.22,-1.6,1.6,2.7,4.2,3.181,3.177,12.391,10.858
122.0,2508271.564,-1.601,1.6,2.7,4.2,3.177,3.175,12.382,10.853
123.0,2531064.561,-1.601,1.6,2.7,4.2,3.177,3.175,12.379,10.853
124.0,2553812.335,-1.601,1.6,2.7,4.201,3.178,3.177,12.384,10.872
125.0,2576582.033,-1.6,1.6,2.7,4.201,3.179,3.176,12.383,10.863
126.0,2599531.548,-1.601,1.6,2.7,4.201,3.178,3.173,12.379,10.848
127.0,2622375.907,-1.6,1.6,2.7,4.201,3.174,3.172,12.369,10.84
128.0,2645258.484,-1.6,1.6,2.7,4.201,3.173,3.17,12.366,10.83
129.0,2668191.938,-1.601,1.6,2.7,4.201,3.174,3.171,12.368,10.838
130.0,2691100.753,-1.6,1.6,2.7,4.201,3.174,3.169,12.369,10.825
131.0,2714155.96,-1.6,1.6,2.7,4.201,3.17,3.166,12.358,10.808
132.0,2737159.686,-1.6,1.6,2.7,4.201,3.168,3.166,12.351,10.809
133.0,2760180.416,-1.6,1.6,2.7,4.201,3.167,3.163,12.349,10.794
134.0,2783322.613,-1.6,1.6,2.7,4.201,3.165,3.162,12.342,10.782
135.0,2806584.782,-1.6,1.6,2.7,4.201,3.163,3.157,12.335,10.763
136.0,2829872.087,-1.6,1.6,2.7,4.2,3.158,3.157,12.33,10.767
137.0,2852992.004,-1.601,1.6,2.7,4.201,3.159,3.156,12.323,10.757
138.0,2876070.65,-1.6,1.6,2.7,4.201,3.158,3.156,12.319,10.759
139.0,2898946.189,-1.601,1.6,2.7,4.201,3.161,3.16,12.326,10.792
140.0,2921827.057,-1.6,1.6,2.7,4.201,3.161,3.158,12.32,10.774
141.0,2944705.123,-1.6,1.6,2.7,4.201,3.159,3.156,12.317,10.769
142.0,2967555.563,-1.6,1.6,2.7,4.201,3.158,3.155,12.313,10.766
143.0,2990449.12,-1.601,1.6,2.7,4.201,3.157,3.155,12.311,10.763
144.0,3013345.008,-1.6,1.6,2.7,4.201,3.156,3.154,12.308,10.759
145.0,3036188.966,-1.601,1.6,2.7,4.201,3.155,3.153,12.303,10.754
146.0,3058963.576,-1.6,1.6,2.7,4.201,3.155,3.154,12.303,10.766
147.0,3081763.148,-1.601,1.6,2.7,4.201,3.155,3.151,12.297,10.746
148.0,3104760.404,-1.6,1.6,2.7,4.201,3.153,3.148,12.295,10.727
149.0,3128030.323,-1.6,1.6,2.7,4.201,3.148,3.144,12.288,10.704
150.0,3151326.872,-1.6,1.6,2.7,4.201,3.145,3.142,12.28,10.695
151.0,3174679.347,-1.6,1.6,2.7,4.201,3.144,3.142,12.277,10.688
152.0,3197985.045,-1.6,1.6,2.7,4.201,3.142,3.139,12.27,10.676
153.0,3221318.538,-1.6,1.6,2.7,4.201,3.14,3.138,12.265,10.667
154.0,3244744.959,-1.601,1.6,2.7,4.201,3.14,3.136,12.263,10.66
155.0,3268265.38,-1.601,1.6,2.7,4.201,3.137,3.135,12.257,10.655
156.0,3291726.643,-1.6,1.6,2.7,4.201,3.136,3.133,12.252,10.65
157.0,3306822.362,-1.6,1.6,2.7,4.2,2.545,2.545,9.771,8.46
158.0,3330439.221,-1.601,1.6,2.7,4.201,3.134,3.134,12.247,10.651
159.0,3353947.868,-1.6,1.6,2.7,4.201,3.135,3.131,12.251,10.637
160.0,3377653.675,-1.601,1.6,2.7,4.201,3.134,3.131,12.249,10.634
161.0,3401072.796,-1.601,1.601,2.7,4.201,3.131,3.13,12.237,10.635
162.0,3424439.143,-1.6,1.6,2.7,4.201,3.132,3.13,12.237,10.635
163.0,3447927.552,-1.6,1.6,2.7,4.201,3.131,3.128,12.235,10.627
164.0,3471331.665,-1.6,1.6,2.7,4.201,3.128,3.124,12.224,10.612
165.0,3494898.147,-1.601,1.6,2.7,4.201,3.128,3.126,12.228,10.618
166.0,3518469.599,-1.601,1.6,2.7,4.201,3.127,3.124,12.223,10.607
167.0,3541872.487,-1.6,1.6,2.7,4.201,3.124,3.121,12.211,10.597
168.0,3565330.516,-1.601,1.6,2.7,4.201,3.123,3.119,12.209,10.588
169.0,3584555.857,-1.6,1.6,2.7,4.201,3.121,2.758,12.201,9.607
170.0,3602902.545,-1.601,1.6,2.7,4.201,2.761,2.744,10.864,9.559
171.0,3621270.67,-1.601,1.6,2.678,4.201,2.747,2.743,10.809,9.551
172.0,3639470.042,-1.6,1.6,2.7,4.201,2.742,2.733,10.788,9.514
173.0,3657659.804,-1.6,1.6,2.7,4.201,2.736,2.724,10.765,9.48
174.0,3675997.728,-1.6,1.6,2.555,4.201,2.727,2.738,10.736,9.522
175.0,3686289.224,-1.601,1.6,2.664,4.2,2.154,2.153,8.321,7.345
176.0,3704670.49,-1.601,1.6,2.7,4.201,2.738,2.734,10.78,9.512
177.0,3723055.099,-1.6,1.6,2.7,4.201,2.738,2.726,10.773,9.48
178.0,3741458.172,-1.601,1.601,2.7,4.201,2.728,2.726,10.737,9.472
179.0,3759778.685,-1.601,1.6,2.7,4.201,2.727,2.717,10.738,9.443
180.0,3778238.958,-1.6,1.6,2.7,4.201,2.722,2.722,10.717,9.461
181.0,3796669.876,-1.6,1.6,2.7,4.201,2.725,2.718,10.728,9.45
182.0,3815041.008,-1.6,1.6,2.7,4.201,2.717,2.714,10.699,9.427
183.0,3833394.987,-1.6,1.6,2.647,4.201,2.716,2.709,10.695,9.413
184.0,3851667.59,-1.6,1.6,2.7,4.201,2.711,2.713,10.676,9.424
185.0,3870035.99,-1.6,1.6,2.7,4.201,2.717,2.715,10.7,9.435
186.0,3888380.307,-1.6,1.6,2.7,4.201,2.717,2.708,10.699,9.411
187.0,3906733.001,-1.601,1.6,2.7,4.201,2.711,2.709,10.676,9.408
188.0,3925111.988,-1.6,1.6,2.7,4.201,2.71,2.706,10.678,9.399
189.0,3943455.953,-1.6,1.6,2.7,4.201,2.709,2.703,10.67,9.389
190.0,3953619.876,-1.601,1.6,2.7,4.2,2.118,2.131,8.19,7.251
191.0,3972031.813,-1.6,1.6,2.7,4.201,2.72,2.7,10.717,9.375
192.0,3982125.459,-1.6,1.6,2.7,4.2,2.105,2.113,8.142,7.184
193.0,4000683.016,-1.6,1.6,2.7,4.201,2.711,2.702,10.691,9.383
194.0,4019031.692,-1.601,1.6,2.7,4.201,2.703,2.7,10.652,9.372
195.0,4037407.084,-1.6,1.6,2.7,4.201,2.703,2.701,10.648,9.378
196.0,4055712.774,-1.601,1.6,2.697,4.201,2.702,2.7,10.646,9.372
197.0,4074066.002,-1.601,1.6,2.7,4.201,2.703,2.702,10.649,9.374
198.0,4092415.629,-1.6,1.6,2.7,4.201,2.703,2.7,10.649,9.365
199.0,4110767.101,-1.601,1.6,2.7,4.201,2.703,2.702,10.651,9.373
200.0,4129199.157,-1.6,1.6,2.7,4.201,2.707,2.695,10.664,9.352
201.0,4147697.594,-1.6,1.6,2.7,4.201,2.698,2.711,10.635,9.406
202.0,4165385.621,-1.6,1.6,2.858,4.201,2.718,2.558,10.702,8.975