File: Li-ion_Batteries/UL-PUR_R20-NA7_18650_NCA_23C_2.5-96.5_0.5-0.5C_g_cycle_data.csv
Cycle_Index,Test_Time (s),Min_Current (A),Max_Current (A),Min_Voltage (V),Max_Voltage (V),Charge_Capacity (Ah),Discharge_Capacity (Ah),Charge_Energy (Wh),Discharge_Energy (Wh)
1.0,16001.85,-1.133,1.134,2.9,4.0,0.895,2.705,3.522,9.433
2.0,37706.228,-1.133,1.134,2.9,4.0,2.704,2.703,10.117,9.428
3.0,59465.169,-1.133,1.134,2.9,4.0,2.703,2.702,10.113,9.421
4.0,81211.09,-1.133,1.134,2.9,4.0,2.701,2.702,10.11,9.422
5.0,102842.62,-1.133,1.134,2.9,4.0,2.702,2.702,10.109,9.422
6.0,124480.97,-1.133,1.134,2.9,4.0,2.703,2.703,10.109,9.433
7.0,146109.178,-1.133,1.134,2.9,4.0,2.703,2.703,10.109,9.431
8.0,167797.645,-1.133,1.134,2.9,4.0,2.702,2.702,10.107,9.428
9.0,189480.562,-1.133,1.134,2.9,4.0,2.701,2.701,10.103,9.424
10.0,211182.95,-1.133,1.134,2.9,4.0,2.701,2.7,10.101,9.419
11.0,232842.191,-1.133,1.134,2.9,4.0,2.7,2.701,10.1,9.42
12.0,254466.843,-1.133,1.134,2.9,4.0,2.7,2.701,10.099,9.42
13.0,276149.342,-1.133,1.134,2.9,4.0,2.7,2.7,10.1,9.416
14.0,297813.083,-1.133,1.134,2.9,4.0,2.699,2.699,10.097,9.41
15.0,319457.638,-1.133,1.134,2.9,4.0,2.699,2.7,10.097,9.414
16.0,341173.662,-1.133,1.134,2.9,4.0,2.699,2.699,10.097,9.41
17.0,362854.879,-1.133,1.134,2.9,4.0,2.698,2.697,10.092,9.403
18.0,384629.979,-1.133,1.134,2.9,4.0,2.697,2.696,10.09,9.393
19.0,406375.985,-1.133,1.134,2.9,4.0,2.695,2.695,10.087,9.395
20.0,428086.568,-1.133,1.134,2.9,4.0,2.695,2.696,10.086,9.394
21.0,449791.904,-1.133,1.134,2.9,4.0,2.695,2.695,10.083,9.391
22.0,471383.359,-1.133,1.134,2.9,4.0,2.695,2.697,10.085,9.405
23.0,492969.566,-1.133,1.134,2.9,4.0,2.696,2.696,10.083,9.401
24.0,514591.489,-1.133,1.134,2.9,4.0,2.695,2.695,10.081,9.4
25.0,536156.405,-1.133,1.134,2.9,4.0,2.694,2.695,10.078,9.397
26.0,557748.806,-1.133,1.134,2.9,4.0,2.694,2.695,10.078,9.397
27.0,579335.411,-1.133,1.134,2.9,4.0,2.693,2.694,10.075,9.393
28.0,600897.914,-1.133,1.134,2.9,4.0,2.693,2.694,10.073,9.393
29.0,622455.597,-1.133,1.134,2.9,4.0,2.693,2.693,10.072,9.392
30.0,643927.079,-1.133,1.134,2.9,4.0,2.694,2.695,10.074,9.406
31.0,665458.532,-1.133,1.134,2.9,4.001,2.694,2.694,10.072,9.398
32.0,687127.323,-1.133,1.134,2.9,4.0,2.692,2.691,10.066,9.378
33.0,708874.476,-1.133,1.134,2.9,4.0,2.69,2.69,10.065,9.375
34.0,730519.982,-1.133,1.134,2.9,4.0,2.69,2.691,10.064,9.378
35.0,752166.211,-1.133,1.134,2.9,4.0,2.69,2.689,10.063,9.373
36.0,773757.064,-1.133,1.134,2.9,4.0,2.688,2.689,10.058,9.368
37.0,795397.055,-1.133,1.134,2.9,4.0,2.688,2.688,10.059,9.365
38.0,811755.914,-1.133,1.134,2.9,4.0,2.327,2.33,8.615,8.002
39.0,833467.371,-1.133,1.134,2.9,4.0,2.687,2.687,10.056,9.362
40.0,849896.434,-1.133,1.134,2.9,4.0,2.337,2.326,8.654,7.988
41.0,871629.206,-1.133,1.134,2.9,4.0,2.686,2.687,10.052,9.359
42.0,887975.061,-1.133,1.134,2.9,4.0,2.321,2.323,8.59,7.973
43.0,909632.03,-1.133,1.134,2.9,4.0,2.685,2.686,10.05,9.355
44.0,931300.402,-1.133,1.134,2.9,4.0,2.686,2.686,10.052,9.356
45.0,952989.488,-1.133,1.134,2.9,4.0,2.685,2.685,10.049,9.353
46.0,974676.781,-1.133,1.134,2.9,4.0,2.685,2.686,10.049,9.356
47.0,996359.485,-1.133,1.134,2.9,4.0,2.685,2.685,10.048,9.355
48.0,1018041.988,-1.133,1.134,2.9,4.0,2.685,2.685,10.048,9.354
49.0,1039716.016,-1.133,1.134,2.9,4.0,2.684,2.684,10.045,9.347
50.0,1057694.072,-1.6,1.6,2.9,4.0,2.689,2.685,10.111,9.243
51.0,1074774.493,-1.6,1.6,2.9,4.0,2.683,2.684,10.126,9.241
52.0,1091873.568,-1.6,1.6,2.9,4.0,2.683,2.684,10.128,9.242
53.0,1109015.818,-1.6,1.6,2.9,4.001,2.683,2.684,10.127,9.242
54.0,1126192.34,-1.6,1.6,2.9,4.0,2.683,2.683,10.125,9.237
55.0,1143350.288,-1.6,1.6,2.9,4.0,2.682,2.683,10.125,9.232
56.0,1160310.405,-1.6,1.6,2.9,4.0,2.682,2.678,10.125,9.213
57.0,1176019.216,-1.6,1.6,2.9,4.0,2.677,2.497,10.108,8.694
58.0,1191301.505,-1.6,1.6,2.9,4.001,2.5,2.506,9.482,8.722
59.0,1206575.954,-1.6,1.6,2.9,4.0,2.507,2.499,9.508,8.699
60.0,1221833.007,-1.6,1.6,2.9,4.0,2.501,2.489,9.485,8.667
61.0,1237059.852,-1.6,1.6,2.9,4.0,2.491,2.483,9.449,8.646
62.0,1252295.484,-1.6,1.6,2.9,4.0,2.485,2.494,9.429,8.681
63.0,1267530.074,-1.6,1.6,2.9,4.001,2.496,2.495,9.468,8.682
64.0,1282760.839,-1.6,1.6,2.9,4.0,2.496,2.496,9.466,8.688
65.0,1298065.765,-1.6,1.6,2.9,4.001,2.498,2.498,9.477,8.691
66.0,1313340.213,-1.6,1.6,2.9,4.0,2.499,2.488,9.481,8.652
67.0,1328582.581,-1.6,1.6,2.9,4.0,2.488,2.48,9.443,8.632
68.0,1343788.013,-1.654,1.6,2.899,4.0,2.482,2.492,9.42,8.666
69.0,1359057.583,-1.6,1.6,2.9,4.0,2.494,2.491,9.462,8.664
70.0,1374316.442,-1.6,1.6,2.9,4.0,2.492,2.491,9.457,8.665
71.0,1389562.063,-1.6,1.6,2.9,4.0,2.492,2.479,9.456,8.623
72.0,1404787.266,-1.6,1.6,2.9,4.0,2.479,2.479,9.413,8.621
73.0,1420040.966,-1.6,1.6,2.9,4.0,2.481,2.481,9.417,8.629
74.0,1435270.584,-1.6,1.6,2.9,4.0,2.483,2.482,9.423,8.634
75.0,1450498.54,-1.6,1.6,2.9,4.0,2.483,2.483,9.426,8.637
76.0,1465748.469,-1.6,1.6,2.9,4.0,2.484,2.488,9.428,8.651
77.0,1480973.901,-1.6,1.6,2.9,4.0,2.489,2.475,9.446,8.607
78.0,1496263.099,-1.6,1.6,2.9,4.0,2.477,2.477,9.404,8.613
79.0,1511490.885,-1.6,1.6,2.9,4.0,2.478,2.476,9.409,8.61
80.0,1526746.293,-1.6,1.6,2.9,4.0,2.477,2.479,9.405,8.618
81.0,1541981.378,-1.6,1.6,2.9,4.0,2.48,2.478,9.415,8.618
82.0,1551391.108,-1.6,1.6,2.9,4.0,1.958,1.956,7.326,6.673
83.0,1566679.13,-1.6,1.6,2.9,4.0,2.477,2.467,9.407,8.577
84.0,1581912.681,-1.6,1.6,2.9,4.0,2.469,2.478,9.378,8.613
85.0,1597164.462,-1.6,1.6,2.9,4.0,2.479,2.475,9.413,8.605
86.0,1612451.353,-1.6,1.6,2.9,4.0,2.477,2.474,9.406,8.602
87.0,1627735.359,-1.6,1.6,2.9,4.0,2.476,2.474,9.402,8.599
88.0,1643003.518,-1.6,1.6,2.9,4.0,2.474,2.477,9.396,8.61
89.0,1658254.193,-1.6,1.6,2.9,4.0,2.478,2.469,9.41,8.582
90.0,1667580.74,-1.6,1.6,2.9,4.0,1.938,1.939,7.255,6.61
91.0,1682891.957,-1.6,1.6,2.9,4.0,2.47,2.472,9.385,8.591
92.0,1698161.032,-1.6,1.6,2.9,4.0,2.474,2.473,9.395,8.594
93.0,1713395.232,-1.6,1.6,2.9,4.0,2.475,2.471,9.396,8.588
94.0,1728673.503,-1.6,1.6,2.9,4.001,2.472,2.484,9.391,8.637
95.0,1743922.098,-1.6,1.6,2.9,4.001,2.487,2.488,9.437,8.648
96.0,1759126.103,-1.6,1.6,2.9,4.001,2.45,2.489,9.306,8.652
97.0,1774380.853,-1.6,1.6,2.9,4.001,2.49,2.49,9.446,8.658
98.0,1789633.607,-1.6,1.6,2.9,4.001,2.491,2.489,9.451,8.653
99.0,1804885.364,-1.6,1.6,2.9,4.001,2.49,2.488,9.448,8.651
100.0,1820148.827,-1.6,1.6,2.9,4.001,2.489,2.491,9.445,8.663
101.0,1835374.408,-1.6,1.6,2.9,4.0,2.492,2.48,9.453,8.62
102.0,1850463.082,-1.6,1.6,2.9,4.001,2.481,2.439,9.417,8.473
103.0,1865738.637,-1.6,1.6,2.898,4.0,2.436,2.413,9.269,8.373
104.0,1881007.681,-1.6,1.6,2.9,4.0,2.412,2.402,9.191,8.331
105.0,1889873.064,-1.6,1.6,2.9,4.0,1.836,1.836,6.892,6.24
106.0,1905208.859,-1.6,1.6,2.9,4.0,2.404,2.44,9.17,8.468
107.0,1920479.33,-1.6,1.6,2.9,4.0,2.442,2.453,9.291,8.518
108.0,1935753.939,-1.6,1.6,2.9,4.0,2.454,2.455,9.329,8.527
109.0,1951023.13,-1.6,1.6,2.9,4.0,2.456,2.457,9.337,8.536
110.0,1966295.212,-1.6,1.6,2.9,4.0,2.459,2.457,9.346,8.537
111.0,1981574.381,-1.6,1.6,2.9,4.0,2.458,2.448,9.341,8.5
112.0,1996858.304,-1.6,1.6,2.9,4.0,2.448,2.444,9.31,8.485
113.0,2012156.933,-1.6,1.6,2.9,4.0,2.445,2.45,9.301,8.507
114.0,2027432.974,-1.642,1.6,2.899,4.0,2.45,2.439,9.318,8.468
115.0,2042714.429,-1.6,1.6,2.9,4.0,2.441,2.436,9.285,8.457
116.0,2057994.26,-1.6,1.6,2.9,4.0,2.437,2.432,9.273,8.44
117.0,2073355.701,-1.6,1.6,2.9,4.0,2.433,2.456,9.261,8.525
118.0,2088666.14,-1.6,1.6,2.9,4.0,2.458,2.441,9.347,8.475
119.0,2103942.638,-1.6,1.6,2.9,4.0,2.443,2.441,9.291,8.475
120.0,2119211.263,-1.6,1.6,2.9,4.0,2.442,2.44,9.29,8.47
121.0,2134479.833,-1.611,1.6,2.896,4.0,2.442,2.452,9.29,8.517
122.0,2149755.193,-1.6,1.6,2.9,4.0,2.453,2.449,9.325,8.505
123.0,2164993.558,-1.6,1.6,2.9,4.0,2.45,2.439,9.315,8.472
124.0,2180295.738,-1.6,1.6,2.9,4.0,2.44,2.449,9.282,8.505
125.0,2195576.767,-1.6,1.6,2.9,4.0,2.45,2.443,9.315,8.48
126.0,2204720.475,-1.6,1.6,2.9,4.0,1.9,1.896,7.119,6.454
127.0,2220068.067,-1.6,1.6,2.9,4.0,2.438,2.443,9.28,8.48
128.0,2235340.927,-1.6,1.6,2.9,4.0,2.445,2.428,9.298,8.427
129.0,2250653.246,-1.6,1.6,2.9,4.0,2.429,2.43,9.248,8.434
130.0,2265948.106,-1.602,1.6,2.897,4.0,2.432,2.43,9.256,8.435
131.0,2281272.676,-1.6,1.6,2.9,4.0,2.432,2.437,9.257,8.457
132.0,2296620.516,-1.6,1.6,2.9,4.0,2.438,2.433,9.278,8.441
133.0,2311924.664,-1.6,1.6,2.9,4.0,2.433,2.416,9.261,8.382
134.0,2327258.612,-1.6,1.6,2.9,4.0,2.417,2.423,9.208,8.405
135.0,2342550.514,-1.6,1.6,2.9,4.0,2.425,2.421,9.232,8.397
136.0,2357849.403,-1.6,1.6,2.9,4.0,2.422,2.421,9.222,8.4
137.0,2373137.998,-1.6,1.6,2.9,4.0,2.422,2.42,9.223,8.394
138.0,2388428.239,-1.6,1.6,2.9,4.0,2.42,2.414,9.218,8.375
139.0,2403754.766,-1.6,1.6,2.9,4.0,2.415,2.417,9.2,8.385
140.0,2419046.555,-1.6,1.6,2.9,4.0,2.42,2.421,9.214,8.4
141.0,2434340.929,-1.6,1.6,2.9,4.0,2.422,2.421,9.222,8.399
142.0,2449610.35,-1.6,1.6,2.9,4.0,2.422,2.419,9.223,8.392
143.0,2464869.443,-1.6,1.6,2.9,4.0,2.42,2.412,9.217,8.368
144.0,2480131.918,-1.6,1.6,2.9,4.001,2.415,2.417,9.203,8.386
145.0,2495433.861,-1.6,1.6,2.9,4.0,2.417,2.415,9.206,8.377
146.0,2510702.251,-1.6,1.6,2.9,4.0,2.416,2.415,9.202,8.377
147.0,2526000.485,-1.6,1.6,2.9,4.0,2.417,2.427,9.207,8.42
148.0,2541313.365,-1.6,1.6,2.9,4.0,2.427,2.423,9.239,8.405
149.0,2556633.915,-1.6,1.6,2.9,4.0,2.424,2.414,9.231,8.371
150.0,2571956.435,-1.6,1.6,2.9,4.0,2.415,2.409,9.198,8.355
151.0,2587278.217,-1.6,1.6,2.9,4.0,2.41,2.413,9.183,8.369
152.0,2596207.22,-1.6,1.6,2.9,4.0,1.852,1.849,6.946,6.276
153.0,2611558.616,-1.6,1.6,2.9,4.0,2.41,2.402,9.182,8.326
154.0,2626869.758,-1.6,1.6,2.9,4.0,2.404,2.403,9.164,8.329
155.0,2642202.238,-1.6,1.6,2.896,4.0,2.404,2.4,9.162,8.318
156.0,2657556.854,-1.6,1.6,2.9,4.0,2.401,2.4,9.152,8.319
157.0,2672883.713,-1.6,1.6,2.9,4.0,2.402,2.396,9.155,8.304
158.0,2688172.736,-1.6,1.6,2.9,4.0,2.398,2.396,9.141,8.306
159.0,2703505.604,-1.6,1.6,2.9,4.0,2.397,2.39,9.139,8.281
160.0,2718867.569,-1.6,1.6,2.9,4.0,2.391,2.398,9.12,8.309
161.0,2734188.971,-1.6,1.6,2.9,4.0,2.399,2.394,9.147,8.297
162.0,2749481.59,-1.6,1.6,2.9,4.0,2.395,2.394,9.131,8.297
163.0,2764815.768,-1.6,1.6,2.9,4.0,2.395,2.399,9.131,8.316
164.0,2780125.37,-1.6,1.6,2.9,4.0,2.4,2.385,9.15,8.262
165.0,2795437.547,-1.6,1.6,2.9,4.0,2.386,2.391,9.102,8.286
166.0,2810780.599,-1.6,1.6,2.9,4.0,2.392,2.393,9.125,8.293
167.0,2819584.482,-1.6,1.6,2.9,4.0,1.82,1.825,6.835,6.193
168.0,2834984.413,-1.6,1.6,2.9,4.0,2.397,2.389,9.141,8.278
169.0,2850337.577,-1.6,1.6,2.9,4.0,2.391,2.389,9.121,8.279
170.0,2865721.086,-1.6,1.6,2.9,4.0,2.389,2.383,9.113,8.257
171.0,2881046.525,-1.6,1.6,2.9,4.0,2.386,2.404,9.104,8.334
172.0,2889939.826,-1.6,1.6,2.9,4.0,1.84,1.845,6.904,6.266
173.0,2905305.177,-1.6,1.6,2.9,4.0,2.41,2.408,9.184,8.348
174.0,2920723.731,-1.6,1.6,2.9,4.0,2.408,2.387,9.178,8.27
175.0,2936069.068,-1.6,1.6,2.9,4.0,2.388,2.386,9.109,8.265
176.0,2951366.804,-1.6,1.6,2.9,4.0,2.386,2.381,9.104,8.25
177.0,2966744.178,-1.6,1.6,2.9,4.0,2.382,2.387,9.092,8.271
178.0,2982085.27,-1.6,1.6,2.9,4.0,2.388,2.382,9.109,8.252
179.0,2997394.814,-1.6,1.6,2.9,4.0,2.383,2.384,9.093,8.262
180.0,3006154.562,-1.6,1.6,2.9,4.0,1.808,1.818,6.79,6.165
181.0,3021569.439,-1.6,1.6,2.9,4.0,2.394,2.388,9.131,8.27
182.0,3036920.107,-1.6,1.6,2.9,4.0,2.39,2.382,9.115,8.25
183.0,3052354.368,-1.6,1.6,2.9,4.0,2.382,2.379,9.091,8.242
184.0,3067709.707,-1.6,1.6,2.9,4.0,2.38,2.379,9.081,8.239
185.0,3083129.746,-1.6,1.6,2.9,4.0,2.383,2.375,9.092,8.231
186.0,3098471.477,-1.639,1.6,2.895,4.0,2.373,2.377,9.06,8.233
187.0,3113811.147,-1.6,1.6,2.9,4.0,2.379,2.374,9.077,8.223
188.0,3129154.15,-1.6,1.6,2.9,4.0,2.375,2.37,9.065,8.207
189.0,3144519.018,-1.6,1.6,2.9,4.0,2.372,2.378,9.056,8.236
190.0,3159864.577,-1.6,1.6,2.9,4.0,2.379,2.373,9.08,8.217
191.0,3175218.893,-1.6,1.6,2.9,4.0,2.374,2.372,9.062,8.215
192.0,3190556.156,-1.6,1.6,2.9,4.0,2.373,2.375,9.059,8.225
193.0,3205931.059,-1.6,1.6,2.9,4.0,2.377,2.383,9.071,8.256
194.0,3221275.138,-1.6,1.6,2.9,4.0,2.384,2.38,9.095,8.245
195.0,3236641.871,-1.6,1.6,2.9,4.0,2.381,2.38,9.086,8.244
196.0,3251974.384,-1.6,1.6,2.9,4.0,2.382,2.386,9.088,8.266
197.0,3267314.39,-1.6,1.6,2.9,4.0,2.387,2.386,9.106,8.268
198.0,3282641.935,-1.6,1.6,2.9,4.0,2.388,2.386,9.108,8.267
199.0,3297970.849,-1.6,1.6,2.9,4.0,2.386,2.376,9.101,8.23
200.0,3313331.827,-1.6,1.6,2.9,4.0,2.377,2.377,9.073,8.234
201.0,3328688.518,-1.6,1.6,2.9,4.0,2.378,2.376,9.075,8.23
202.0,3344048.473,-1.6,1.6,2.9,4.0,2.377,2.376,9.071,8.23
203.0,3352736.745,-1.6,1.6,2.9,4.0,1.794,1.799,6.741,6.1
204.0,3368154.275,-1.6,1.6,2.9,4.0,2.38,2.374,9.085,8.222
205.0,3383508.791,-1.6,1.6,2.9,4.0,2.376,2.371,9.068,8.208
206.0,3398864.337,-1.6,1.6,2.9,4.0,2.372,2.369,9.054,8.203
207.0,3414212.588,-1.6,1.6,2.9,4.0,2.371,2.37,9.05,8.208
208.0,3429569.143,-1.6,1.6,2.9,4.0,2.371,2.369,9.052,8.204
209.0,3444945.719,-1.6,1.6,2.9,4.0,2.37,2.371,9.048,8.211
210.0,3460304.133,-1.6,1.6,2.9,4.0,2.372,2.37,9.055,8.205
211.0,3475663.336,-1.6,1.6,2.9,4.0,2.37,2.368,9.049,8.198
212.0,3491030.931,-1.6,1.6,2.9,4.0,2.368,2.367,9.042,8.196
213.0,3506397.095,-1.6,1.6,2.9,4.0,2.369,2.368,9.043,8.201
214.0,3521745.578,-1.6,1.6,2.9,4.0,2.369,2.363,9.044,8.182
215.0,3537081.754,-1.6,1.6,2.9,4.0,2.365,2.366,9.029,8.195
216.0,3552442.629,-1.6,1.6,2.9,4.0,2.367,2.364,9.037,8.185
217.0,3567797.044,-1.6,1.6,2.9,4.0,2.365,2.361,9.03,8.173
218.0,3583147.366,-1.6,1.6,2.9,4.0,2.363,2.362,9.023,8.178
219.0,3598495.611,-1.6,1.6,2.9,4.0,2.364,2.362,9.026,8.179
220.0,3613865.773,-1.6,1.6,2.9,4.0,2.363,2.364,9.022,8.186
221.0,3629227.635,-1.6,1.6,2.9,4.0,2.365,2.36,9.031,8.168
222.0,3644583.748,-1.6,1.6,2.9,4.0,2.361,2.361,9.016,8.176
223.0,3659939.611,-1.6,1.6,2.9,4.0,2.362,2.358,9.019,8.163
224.0,3675279.213,-1.6,1.6,2.898,4.0,2.36,2.359,9.012,8.166
225.0,3690503.115,-1.6,1.6,2.9,4.0,2.361,2.357,9.016,8.161
226.0,3705846.795,-1.6,1.6,2.9,4.0,2.357,2.357,9.005,8.159
227.0,3721194.196,-1.6,1.6,2.9,4.0,2.358,2.359,9.007,8.166
228.0,3736551.774,-1.6,1.6,2.9,4.0,2.36,2.356,9.012,8.158
229.0,3751911.371,-1.6,1.6,2.9,4.0,2.357,2.358,9.005,8.162
230.0,3767255.477,-1.6,1.6,2.9,4.0,2.359,2.356,9.01,8.156
231.0,3782613.207,-1.6,1.6,2.9,4.0,2.357,2.355,9.003,8.15
232.0,3797963.155,-1.6,1.6,2.9,4.0,2.356,2.356,8.999,8.154
233.0,3813295.598,-1.6,1.6,2.9,4.0,2.356,2.355,9.0,8.151
234.0,3828646.816,-1.6,1.6,2.9,4.0,2.357,2.355,9.001,8.151
235.0,3843997.664,-1.6,1.6,2.9,4.0,2.355,2.349,8.995,8.128
236.0,3859352.048,-1.6,1.6,2.9,4.0,2.35,2.353,8.98,8.145
237.0,3874692.69,-1.6,1.6,2.9,4.0,2.354,2.352,8.992,8.141
238.0,3890007.518,-1.6,1.6,2.9,4.0,2.354,2.353,8.992,8.146
239.0,3905357.873,-1.6,1.6,2.9,4.0,2.353,2.351,8.991,8.138
240.0,3920718.995,-1.6,1.6,2.9,4.0,2.353,2.351,8.989,8.138
241.0,3936087.404,-1.6,1.6,2.9,4.0,2.351,2.349,8.983,8.127
242.0,3951400.124,-1.6,1.6,2.9,4.0,2.351,2.35,8.981,8.135
243.0,3966767.162,-1.6,1.6,2.9,4.0,2.351,2.351,8.984,8.137
244.0,3982073.214,-1.6,1.6,2.9,4.0,2.352,2.354,8.985,8.148
245.0,3997442.243,-1.6,1.6,2.9,4.0,2.355,2.35,8.996,8.134
246.0,4012750.634,-1.6,1.6,2.9,4.0,2.352,2.345,8.984,8.116
247.0,4021270.912,-1.6,1.6,2.9,4.0,1.754,1.764,6.598,5.976
248.0,4036695.275,-1.6,1.6,2.898,4.0,2.355,2.348,9.001,8.125
249.0,4052075.764,-1.6,1.6,2.9,4.0,2.349,2.346,8.977,8.119
250.0,4067421.978,-1.6,1.6,2.897,4.0,2.348,2.348,8.973,8.126
251.0,4082777.767,-1.6,1.6,2.9,4.0,2.349,2.352,8.975,8.143
252.0,4098174.771,-1.6,1.6,2.9,4.0,2.353,2.348,8.99,8.126
253.0,4113522.935,-1.6,1.6,2.9,4.0,2.349,2.342,8.976,8.103
254.0,4128870.12,-1.6,1.6,2.9,4.0,2.343,2.341,8.954,8.1
255.0,4144238.452,-1.6,1.6,2.9,4.0,2.343,2.341,8.953,8.098
256.0,4159595.876,-1.6,1.6,2.9,4.0,2.342,2.342,8.95,8.102
257.0,4174925.146,-1.6,1.6,2.9,4.0,2.344,2.345,8.956,8.112
258.0,4190290.298,-1.6,1.6,2.9,4.0,2.346,2.346,8.964,8.119
259.0,4205650.118,-1.6,1.6,2.9,4.0,2.347,2.344,8.97,8.112
260.0,4220998.793,-1.6,1.6,2.9,4.0,2.346,2.342,8.963,8.101
261.0,4236363.64,-1.6,1.6,2.9,4.0,2.343,2.349,8.955,8.131
262.0,4251669.291,-1.6,1.6,2.9,4.0,2.35,2.347,8.978,8.122
263.0,4267040.764,-1.6,1.6,2.9,4.0,2.348,2.343,8.972,8.106
264.0,4282398.113,-1.6,1.6,2.9,4.0,2.344,2.341,8.957,8.098
265.0,4297649.24,-1.6,1.6,2.9,4.0,2.342,2.335,8.948,8.077
266.0,4312995.636,-1.6,1.6,2.9,4.0,2.336,2.333,8.932,8.069
267.0,4328318.336,-1.6,1.6,2.9,4.0,2.335,2.342,8.927,8.106
268.0,4336814.892,-1.6,1.6,2.9,4.0,1.751,1.757,6.585,5.95
269.0,4352228.783,-1.6,1.6,2.9,4.0,2.348,2.346,8.977,8.117
270.0,4367584.09,-1.6,1.6,2.9,4.0,2.348,2.344,8.97,8.115
271.0,4382945.786,-1.6,1.6,2.9,4.0,2.346,2.342,8.963,8.104
272.0,4398291.955,-1.6,1.6,2.9,4.0,2.343,2.344,8.955,8.114
273.0,4413646.345,-1.6,1.6,2.9,4.0,2.345,2.339,8.96,8.09
274.0,4428977.116,-1.6,1.6,2.9,4.0,2.339,2.339,8.939,8.092
275.0,4444359.362,-1.6,1.6,2.9,4.0,2.341,2.34,8.946,8.098
276.0,4459709.382,-1.6,1.6,2.9,4.0,2.341,2.34,8.948,8.098
277.0,4475049.539,-1.6,1.6,2.9,4.0,2.341,2.339,8.946,8.094
278.0,4490428.756,-1.6,1.6,2.9,4.0,2.34,2.349,8.942,8.125
279.0,4505797.833,-1.6,1.6,2.899,4.0,2.35,2.335,8.978,8.078
280.0,4521095.76,-1.6,1.6,2.9,4.0,2.335,2.333,8.927,8.072
281.0,4536435.482,-1.6,1.6,2.9,4.0,2.334,2.332,8.921,8.066
282.0,4551781.477,-1.6,1.6,2.9,4.0,2.334,2.332,8.922,8.068
283.0,4567140.062,-1.6,1.6,2.9,4.0,2.334,2.334,8.922,8.074
284.0,4582476.485,-1.6,1.6,2.9,4.0,2.336,2.338,8.929,8.09
285.0,4597839.161,-1.6,1.6,2.9,4.0,2.339,2.348,8.94,8.125
286.0,4613166.421,-1.6,1.6,2.9,4.0,2.349,2.339,8.972,8.096
287.0,4628510.982,-1.6,1.6,2.9,4.0,2.339,2.333,8.939,8.071
288.0,4643857.395,-1.6,1.6,2.9,4.0,2.333,2.327,8.921,8.049
289.0,4659217.532,-1.6,1.6,2.9,4.0,2.328,2.326,8.902,8.042
290.0,4674591.107,-1.6,1.6,2.9,4.0,2.328,2.339,8.902,8.096
291.0,4689934.044,-1.6,1.6,2.9,4.0,2.341,2.338,8.945,8.091
292.0,4705258.151,-1.6,1.6,2.9,4.0,2.339,2.333,8.939,8.073
293.0,4720569.935,-1.6,1.6,2.9,4.0,2.334,2.33,8.923,8.061
294.0,4735898.722,-1.6,1.6,2.9,4.0,2.331,2.327,8.91,8.049
295.0,4751218.011,-1.6,1.6,2.9,4.0,2.329,2.332,8.904,8.068
296.0,4766552.728,-1.6,1.6,2.9,4.0,2.333,2.321,8.916,8.027
297.0,4781923.885,-1.6,1.6,2.897,4.0,2.322,2.322,8.882,8.029
298.0,4797244.903,-1.6,1.6,2.9,4.0,2.322,2.323,8.882,8.035
299.0,4812571.229,-1.6,1.6,2.9,4.0,2.324,2.32,8.89,8.023
300.0,4827886.355,-1.6,1.6,2.9,4.0,2.32,2.311,8.875,7.991
301.0,4843281.702,-1.6,1.6,2.9,4.0,2.313,2.328,8.854,8.05
302.0,4858617.653,-1.6,1.6,2.9,4.0,2.33,2.334,8.907,8.073
303.0,4873940.978,-1.6,1.6,2.9,4.0,2.335,2.33,8.923,8.062
304.0,4889262.572,-1.6,1.6,2.9,4.0,2.331,2.327,8.911,8.048
305.0,4904550.996,-1.6,1.6,2.9,4.0,2.327,2.326,8.891,8.047
306.0,4919889.814,-1.6,1.6,2.9,4.0,2.327,2.322,8.896,8.029
307.0,4928262.888,-1.6,1.6,2.9,4.0,1.724,1.73,6.488,5.853
308.0,4943657.773,-1.6,1.6,2.9,4.0,2.327,2.324,8.903,8.035
309.0,4958979.84,-1.662,1.6,2.899,4.0,2.326,2.318,8.893,8.016
310.0,4974321.799,-1.6,1.6,2.9,4.0,2.319,2.317,8.871,8.01
311.0,4989649.533,-1.6,1.6,2.9,4.0,2.319,2.32,8.869,8.024
312.0,5004972.011,-1.6,1.6,2.9,4.0,2.322,2.321,8.88,8.025
313.0,5020290.013,-1.6,1.6,2.9,4.0,2.321,2.316,8.877,8.008
314.0,5035614.786,-1.6,1.6,2.9,4.0,2.317,2.316,8.864,8.008
315.0,5050931.76,-1.6,1.6,2.9,4.0,2.317,2.313,8.863,7.997
316.0,5066255.04,-1.6,1.6,2.9,4.0,2.314,2.31,8.853,7.986
317.0,5081581.588,-1.6,1.6,2.9,4.0,2.312,2.314,8.847,8.001
318.0,5096920.527,-1.6,1.6,2.9,4.0,2.316,2.318,8.861,8.018
319.0,5112228.634,-1.6,1.6,2.9,4.0,2.319,2.324,8.869,8.039
320.0,5127488.515,-1.6,1.6,2.9,4.0,2.326,2.326,8.892,8.046
321.0,5142798.287,-1.6,1.6,2.9,4.0,2.326,2.315,8.893,8.006
322.0,5158121.11,-1.6,1.6,2.9,4.0,2.316,2.311,8.859,7.99
323.0,5173444.588,-1.6,1.6,2.9,4.0,2.312,2.309,8.845,7.983
324.0,5188762.183,-1.6,1.6,2.9,4.0,2.311,2.319,8.843,8.021
325.0,5204068.113,-1.6,1.6,2.9,4.0,2.321,2.324,8.877,8.041
326.0,5219352.009,-1.6,1.6,2.9,4.0,2.325,2.321,8.89,8.029
327.0,5234606.879,-1.6,1.6,2.9,4.0,2.322,2.318,8.879,8.019
328.0,5249894.411,-1.6,1.6,2.9,4.0,2.319,2.313,8.869,7.999
329.0,5258214.556,-1.6,1.6,2.9,4.0,1.713,1.717,6.448,5.809
330.0,5273640.154,-1.6,1.6,2.9,4.0,2.317,2.314,8.87,8.001
331.0,5288976.43,-1.6,1.6,2.9,4.0,2.316,2.32,8.859,8.021
332.0,5304295.893,-1.6,1.6,2.9,4.0,2.321,2.317,8.877,8.012
333.0,5319603.343,-1.6,1.6,2.9,4.0,2.318,2.317,8.866,8.012
334.0,5334859.487,-1.6,1.6,2.9,4.0,2.318,2.303,8.866,7.963
335.0,5350129.477,-1.6,1.6,2.9,4.0,2.302,2.294,8.813,7.925
336.0,5365403.505,-1.6,1.6,2.9,4.0,2.295,2.283,8.789,7.886
337.0,5380773.46,-1.6,1.6,2.9,4.0,2.284,2.291,8.752,7.916
338.0,5396074.201,-1.6,1.6,2.9,4.0,2.293,2.297,8.782,7.937
339.0,5411397.084,-1.6,1.6,2.9,4.0,2.298,2.297,8.798,7.937
340.0,5426704.778,-1.6,1.6,2.9,4.0,2.299,2.304,8.8,7.964
341.0,5442045.431,-1.6,1.6,2.9,4.0,2.305,2.307,8.822,7.978
342.0,5457362.037,-1.6,1.6,2.9,4.0,2.308,2.305,8.832,7.955
343.0,5472663.052,-1.6,1.6,2.9,4.0,2.307,2.301,8.828,7.954
344.0,5487978.69,-1.6,1.6,2.9,4.0,2.301,2.294,8.807,7.928
345.0,5503254.322,-1.6,1.6,2.9,4.001,2.299,2.3,8.802,7.955
346.0,5518571.405,-1.6,1.6,2.9,4.0,2.299,2.299,8.802,7.948
347.0,5533849.035,-1.6,1.6,2.9,4.0,2.3,2.299,8.806,7.944
348.0,5549186.055,-1.6,1.6,2.9,4.0,2.3,2.299,8.804,7.944
349.0,5564503.996,-1.6,1.6,2.9,4.0,2.3,2.296,8.804,7.936
350.0,5579811.109,-1.6,1.6,2.9,4.0,2.297,2.291,8.794,7.914
351.0,5595158.186,-1.6,1.6,2.9,4.0,2.292,2.296,8.777,7.934
352.0,5610486.172,-1.6,1.6,2.9,4.0,2.298,2.299,8.796,7.947
353.0,5625820.923,-1.6,1.6,2.9,4.0,2.301,2.299,8.806,7.945
354.0,5641115.62,-1.6,1.6,2.9,4.0,2.302,2.307,8.809,7.974
355.0,5656404.592,-1.6,1.6,2.9,4.0,2.307,2.303,8.828,7.962
356.0,5671699.523,-1.6,1.6,2.9,4.0,2.304,2.302,8.816,7.958
357.0,5687037.323,-1.6,1.6,2.9,4.0,2.303,2.306,8.815,7.973
358.0,5702299.366,-1.6,1.6,2.9,4.0,2.308,2.31,8.829,7.986
359.0,5717555.798,-1.6,1.6,2.9,4.0,2.31,2.303,8.836,7.963
360.0,5732877.37,-1.6,1.6,2.9,4.0,2.304,2.302,8.819,7.958
361.0,5748164.205,-1.6,1.6,2.9,4.0,2.304,2.305,8.815,7.972
362.0,5763435.071,-1.6,1.6,2.9,4.0,2.306,2.298,8.825,7.945
363.0,5778707.693,-1.6,1.6,2.9,4.0,2.299,2.293,8.799,7.926
364.0,5793983.245,-1.6,1.6,2.9,4.0,2.295,2.297,8.786,7.94
365.0,5809245.398,-1.6,1.6,2.9,4.0,2.299,2.3,8.789,7.953
366.0,5824502.856,-1.6,1.6,2.9,4.0,2.301,2.293,8.805,7.924
367.0,5839771.938,-1.6,1.6,2.9,4.0,2.293,2.288,8.781,7.905
368.0,5855054.065,-1.6,1.6,2.9,4.0,2.288,2.28,8.762,7.874
369.0,5870396.999,-1.6,1.6,2.9,4.0,2.28,2.286,8.738,7.897
370.0,5885697.153,-1.6,1.6,2.9,4.0,2.288,2.283,8.765,7.889
371.0,5901004.685,-1.6,1.6,2.9,4.0,2.284,2.291,8.751,7.915
372.0,5916303.078,-1.6,1.6,2.9,4.0,2.292,2.281,8.775,7.882
373.0,5931602.96,-1.6,1.6,2.9,4.0,2.282,2.276,8.742,7.862
374.0,5946930.558,-1.6,1.6,2.9,4.0,2.278,2.28,8.728,7.874
375.0,5962226.544,-1.6,1.6,2.9,4.0,2.281,2.285,8.74,7.893
376.0,5977545.581,-1.6,1.6,2.9,4.0,2.286,2.287,8.755,7.904
377.0,5992864.306,-1.6,1.6,2.9,4.0,2.288,2.283,8.761,7.888
378.0,6008133.31,-1.6,1.6,2.9,4.0,2.284,2.281,8.748,7.879
379.0,6023424.615,-1.6,1.6,2.9,4.0,2.282,2.279,8.741,7.871
380.0,6038721.066,-1.6,1.6,2.9,4.0,2.279,2.276,8.734,7.86
381.0,6053982.434,-1.6,1.869,2.9,4.0,2.272,2.284,8.69,7.89
382.0,6069262.34,-1.6,1.6,2.9,4.0,2.284,2.279,8.75,7.87
383.0,6084269.721,-1.6,1.6,2.9,4.0,2.281,2.157,8.738,7.514
384.0,6099180.005,-1.6,1.6,2.9,4.0,2.162,2.286,8.302,7.899
385.0,6114456.062,-1.6,1.6,2.9,4.0,2.286,2.285,8.752,7.894
386.0,6129737.223,-1.6,1.6,2.9,4.0,2.285,2.285,8.752,7.893
387.0,6145023.95,-1.6,1.6,2.9,4.0,2.286,2.285,8.755,7.893
388.0,6160319.798,-1.6,1.6,2.9,4.0,2.285,2.282,8.753,7.88
389.0,6175588.087,-1.6,1.6,2.9,4.0,2.283,2.283,8.745,7.886
390.0,6190835.743,-1.6,1.6,2.9,4.0,2.284,2.283,8.747,7.887
391.0,6206089.017,-1.6,1.6,2.9,4.0,2.284,2.281,8.746,7.882
392.0,6221345.59,-1.6,1.6,2.9,4.0,2.282,2.281,8.741,7.88
393.0,6236587.764,-1.6,1.6,2.9,4.0,2.281,2.278,8.737,7.867
394.0,6251854.728,-1.6,1.6,2.9,4.0,2.279,2.276,8.731,7.86
395.0,6267130.543,-1.6,1.6,2.9,4.0,2.278,2.286,8.726,7.898
396.0,6282435.183,-1.6,1.6,2.9,4.0,2.286,2.282,8.755,7.886
397.0,6297696.786,-1.6,1.6,2.9,4.0,2.284,2.285,8.747,7.893
398.0,6312904.511,-1.6,1.6,2.9,4.0,2.285,2.261,8.753,7.814
399.0,6320939.301,-1.6,1.6,2.9,4.0,1.643,1.66,6.198,5.605
400.0,6336330.958,-1.6,1.6,2.9,4.0,2.277,2.275,8.731,7.856
401.0,6351599.397,-1.6,1.6,2.9,4.0,2.278,2.281,8.727,7.878
402.0,6366849.278,-1.6,1.6,2.9,4.0,2.281,2.273,8.738,7.854
403.0,6382157.907,-1.6,1.6,2.9,4.0,2.274,2.275,8.714,7.856
404.0,6397412.333,-1.6,1.6,2.9,4.0,2.276,2.271,8.72,7.842
405.0,6412687.32,-1.6,1.6,2.9,4.097,2.271,2.271,8.703,7.845
406.0,6427981.409,-1.6,1.6,2.9,4.0,2.273,2.277,8.711,7.867
407.0,6443221.896,-1.6,1.6,2.9,4.0,2.278,2.277,8.726,7.868
408.0,6458487.037,-1.6,1.6,2.9,4.0,2.277,2.271,8.725,7.845
409.0,6473776.854,-1.6,1.6,2.9,4.0,2.272,2.269,8.707,7.835
410.0,6488591.133,-1.6,1.603,2.9,4.0,1.7,2.27,6.437,7.839
411.0,6503887.139,-1.6,1.6,2.9,4.0,2.27,2.269,8.701,7.835
412.0,6519147.334,-1.6,1.6,2.9,4.0,2.269,2.263,8.695,7.812
413.0,6534436.665,-1.6,1.6,2.9,4.0,2.263,2.258,8.678,7.793
414.0,6549725.614,-1.6,1.6,2.9,4.0,2.258,2.252,8.66,7.771
415.0,6565051.228,-1.6,1.6,2.9,4.0,2.253,2.253,8.643,7.775
416.0,6580345.742,-1.6,1.6,2.9,4.0,2.255,2.254,8.649,7.778
417.0,6595606.931,-1.6,1.6,2.9,4.0,2.255,2.258,8.651,7.795
418.0,6610889.711,-1.6,1.6,2.9,4.0,2.259,2.254,8.663,7.778
419.0,6626176.847,-1.6,1.6,2.9,4.0,2.255,2.25,8.648,7.763
420.0,6641483.483,-1.6,1.6,2.9,4.0,2.25,2.246,8.634,7.749
421.0,6656794.398,-1.6,1.6,2.9,4.0,2.247,2.251,8.624,7.767
422.0,6672075.842,-1.6,1.6,2.9,4.0,2.253,2.257,8.643,7.79
423.0,6687304.245,-1.6,1.6,2.9,4.0,2.257,2.254,8.658,7.78
424.0,6702589.058,-1.6,1.6,2.9,4.0,2.254,2.249,8.647,7.762
425.0,6717808.315,-1.6,1.6,2.9,4.0,2.25,2.248,8.629,7.758
426.0,6733098.742,-1.606,1.6,2.896,4.0,2.249,2.245,8.629,7.744
427.0,6748392.146,-1.6,1.6,2.9,4.0,2.246,2.249,8.619,7.761
428.0,6763667.754,-1.6,1.6,2.9,4.0,2.251,2.249,8.634,7.76
429.0,6778948.416,-1.6,1.6,2.9,4.0,2.249,2.245,8.63,7.745
430.0,6794236.95,-1.6,1.6,2.9,4.0,2.246,2.241,8.617,7.731
431.0,6809539.86,-1.6,1.6,2.9,4.0,2.242,2.238,8.606,7.718
432.0,6824876.517,-1.6,1.6,2.9,4.0,2.238,2.24,8.593,7.726
433.0,6840140.684,-1.6,1.6,2.9,4.0,2.241,2.24,8.602,7.726
434.0,6855447.481,-1.6,1.6,2.9,4.0,2.241,2.242,8.603,7.736
435.0,6870739.481,-1.6,1.6,2.9,4.0,2.243,2.242,8.607,7.734
436.0,6878633.183,-1.6,1.6,2.9,4.0,1.616,1.624,6.101,5.477
437.0,6894008.105,-1.6,1.6,2.9,4.0,2.249,2.232,8.635,7.698
438.0,6909341.99,-1.6,1.6,2.9,4.0,2.234,2.239,8.578,7.722
439.0,6924647.7,-1.6,1.6,2.9,4.0,2.241,2.241,8.603,7.73
440.0,6932555.331,-1.6,1.6,2.9,4.0,1.618,1.629,6.106,5.495
441.0,6947893.495,-1.6,1.6,2.9,4.0,2.253,2.24,8.647,7.726
442.0,6963192.142,-1.6,1.6,2.9,4.0,2.242,2.238,8.603,7.719
443.0,6978489.918,-1.6,1.6,2.9,4.0,2.238,2.233,8.593,7.701
444.0,6993822.852,-1.6,1.6,2.9,4.0,2.235,2.24,8.58,7.727
445.0,7009128.513,-1.6,1.6,2.9,4.0,2.242,2.244,8.603,7.741
446.0,7024407.066,-1.6,1.6,2.9,4.0,2.246,2.247,8.616,7.752
447.0,7039676.317,-1.6,1.6,2.9,4.0,2.248,2.244,8.626,7.744
448.0,7054916.454,-1.6,1.6,2.9,4.0,2.244,2.234,8.61,7.707
449.0,7070207.691,-1.6,1.6,2.9,4.0,2.235,2.227,8.58,7.679
450.0,7085549.62,-1.6,1.6,2.9,4.0,2.229,2.23,8.56,7.689
451.0,7100825.088,-1.6,1.6,2.9,4.0,2.232,2.235,8.57,7.71
452.0,7116179.31,-1.6,1.6,2.9,4.0,2.237,2.24,8.587,7.728
453.0,7131463.659,-1.6,1.6,2.9,4.0,2.241,2.237,8.6,7.716
454.0,7146741.52,-1.6,1.6,2.9,4.0,2.238,2.233,8.589,7.702
455.0,7162030.234,-1.6,1.6,2.9,4.0,2.234,2.231,8.577,7.694
456.0,7177264.357,-1.6,1.6,2.9,4.0,2.233,2.232,8.574,7.703
457.0,7192480.304,-1.6,1.6,2.898,4.0,2.233,2.233,8.572,7.702
458.0,7207802.999,-1.6,1.6,2.9,4.0,2.234,2.237,8.577,7.708
459.0,7223085.061,-1.6,1.6,2.9,4.0,2.238,2.238,8.59,7.72
460.0,7238354.992,-1.6,1.6,2.9,4.0,2.239,2.237,8.593,7.717
461.0,7253596.505,-1.6,1.6,2.9,4.0,2.237,2.234,8.587,7.703
462.0,7268812.861,-1.6,1.6,2.9,4.0,2.236,2.234,8.58,7.708
463.0,7284050.938,-1.6,1.6,2.9,4.0,2.235,2.234,8.577,7.707
464.0,7299322.014,-1.6,1.6,2.9,4.0,2.235,2.237,8.578,7.717
465.0,7314593.609,-1.6,1.6,2.9,4.0,2.238,2.235,8.59,7.714
466.0,7329856.007,-1.6,1.6,2.9,4.0,2.236,2.231,8.581,7.697
467.0,7345150.604,-1.6,1.6,2.9,4.0,2.233,2.232,8.571,7.698
468.0,7360438.945,-1.6,1.6,2.9,4.0,2.232,2.229,8.57,7.686
469.0,7375726.621,-1.6,1.6,2.9,4.0,2.231,2.232,8.566,7.698
470.0,7391007.104,-1.6,1.6,2.9,4.0,2.233,2.23,8.572,7.693
471.0,7406270.992,-1.6,1.6,2.9,4.0,2.232,2.23,8.568,7.694
472.0,7421546.829,-1.6,1.6,2.9,4.0,2.232,2.23,8.569,7.691
473.0,7436799.042,-1.6,1.6,2.9,4.0,2.23,2.225,8.563,7.673
474.0,7452068.254,-1.6,1.6,2.9,4.0,2.226,2.225,8.547,7.671
475.0,7467349.684,-1.6,1.6,2.9,4.0,2.226,2.224,8.549,7.669
476.0,7482630.012,-1.6,1.6,2.9,4.0,2.226,2.227,8.547,7.681
477.0,7497911.465,-1.603,1.6,2.896,4.0,2.229,2.228,8.557,7.684
478.0,7513188.583,-1.6,1.6,2.9,4.0,2.23,2.234,8.56,7.706
479.0,7528508.126,-1.6,1.6,2.9,4.0,2.234,2.226,8.577,7.676
480.0,7543814.429,-1.6,1.6,2.9,4.0,2.227,2.234,8.554,7.703
481.0,7559089.44,-1.6,1.6,2.9,4.0,2.235,2.23,8.581,7.693
482.0,7574352.895,-1.6,1.6,2.9,4.0,2.231,2.228,8.564,7.685
483.0,7589611.55,-1.6,1.6,2.9,4.0,2.229,2.225,8.557,7.675
484.0,7604873.869,-1.6,1.6,2.9,4.0,2.226,2.222,8.549,7.668
485.0,7620122.6,-1.6,1.6,2.9,4.0,2.224,2.225,8.541,7.677
486.0,7635432.336,-1.6,1.6,2.9,4.081,2.225,2.221,8.546,7.66
487.0,7650697.389,-1.6,1.6,2.9,4.0,2.222,2.226,8.535,7.676
488.0,7665945.928,-1.6,1.6,2.9,4.0,2.227,2.221,8.551,7.661
489.0,7681217.564,-1.6,1.6,2.9,4.0,2.222,2.222,8.536,7.661
490.0,7696460.331,-1.6,1.6,2.9,4.0,2.224,2.227,8.541,7.68
491.0,7711699.939,-1.6,1.6,2.9,4.0,2.228,2.223,8.553,7.663
492.0,7726975.733,-1.6,1.6,2.9,4.0,2.225,2.223,8.545,7.67
493.0,7742194.546,-1.6,1.6,2.9,4.0,2.225,2.225,8.542,7.676
494.0,7757431.748,-1.6,1.6,2.9,4.0,2.226,2.223,8.547,7.665
495.0,7772696.393,-1.6,1.6,2.9,4.0,2.224,2.224,8.539,7.669
496.0,7787922.19,-1.6,1.6,2.9,4.0,2.226,2.223,8.545,7.668
497.0,7803187.594,-1.6,1.6,2.9,4.0,2.224,2.217,8.539,7.643
498.0,7818445.962,-1.6,1.6,2.9,4.0,2.218,2.218,8.521,7.647
499.0,7833680.191,-1.6,1.6,2.9,4.0,2.219,2.218,8.522,7.648
500.0,7848930.621,-1.6,1.6,2.9,4.0,2.22,2.219,8.526,7.65
501.0,7864191.926,-1.6,1.6,2.9,4.0,2.219,2.217,8.523,7.645
502.0,7879493.252,-1.6,1.6,2.898,4.0,2.217,2.217,8.518,7.645
503.0,7894729.578,-1.6,1.6,2.9,4.0,2.218,2.216,8.52,7.639
504.0,7909998.979,-1.6,1.6,2.9,4.0,2.218,2.223,8.521,7.668
505.0,7925131.934,-1.6,1.6,2.9,4.001,2.224,2.228,8.541,7.685
506.0,7940429.975,-1.6,1.6,2.9,4.0,2.226,2.216,8.547,7.638
507.0,7955684.79,-1.6,1.6,2.9,4.0,2.217,2.217,8.518,7.642
508.0,7970920.66,-1.6,1.6,2.9,4.0,2.217,2.21,8.516,7.618
509.0,7986164.761,-1.6,1.6,2.9,4.0,2.212,2.215,8.497,7.636
510.0,8001414.164,-1.6,1.6,2.9,4.0,2.216,2.213,8.512,7.629
511.0,8016640.884,-1.6,1.6,2.9,4.0,2.215,2.211,8.511,7.624
512.0,8031855.516,-1.6,1.6,2.9,4.0,2.213,2.215,8.5,7.636
513.0,8047123.078,-1.6,1.6,2.9,4.0,2.215,2.215,8.509,7.634
514.0,8062318.813,-1.6,1.6,2.9,4.0,2.216,2.216,8.512,7.639
515.0,8077516.215,-1.6,1.6,2.9,4.0,2.217,2.216,8.514,7.64
516.0,8092747.599,-1.6,1.6,2.9,4.0,2.217,2.216,8.515,7.64
517.0,8107987.84,-1.6,1.6,2.9,4.001,2.218,2.218,8.516,7.647
518.0,8123189.531,-1.6,1.6,2.9,4.0,2.218,2.22,8.517,7.653
519.0,8138408.901,-1.6,1.6,2.9,4.0,2.222,2.214,8.533,7.632
520.0,8153653.798,-1.6,1.6,2.9,4.0,2.214,2.213,8.505,7.631
521.0,8168879.712,-1.6,1.6,2.9,4.0,2.214,2.214,8.505,7.634
522.0,8184090.813,-1.6,1.6,2.9,4.0,2.215,2.217,8.508,7.644
523.0,8199316.916,-1.6,1.6,2.9,4.0,2.218,2.216,8.519,7.643
524.0,8214499.467,-1.6,1.6,2.9,4.0,2.218,2.207,8.517,7.612
525.0,8229702.91,-1.6,1.6,2.9,4.0,2.207,2.205,8.481,7.6
526.0,8244942.64,-1.6,1.6,2.9,4.0,2.206,2.197,8.477,7.571
527.0,8260170.134,-1.6,1.6,2.9,4.0,2.197,2.196,8.449,7.566
528.0,8275421.062,-1.6,1.6,2.9,4.0,2.197,2.193,8.447,7.552
529.0,8290692.874,-1.6,1.6,2.9,4.0,2.193,2.193,8.434,7.552
530.0,8305964.463,-1.6,1.6,2.9,4.0,2.195,2.195,8.44,7.562
531.0,8321218.551,-1.6,1.6,2.9,4.0,2.197,2.199,8.447,7.578
532.0,8336413.617,-1.6,1.6,2.9,4.0,2.199,2.194,8.455,7.56
533.0,8351643.539,-1.6,1.6,2.9,4.0,2.194,2.188,8.437,7.537
534.0,8366890.017,-1.6,1.6,2.9,4.0,2.189,2.184,8.421,7.523
535.0,8382217.721,-1.6,1.6,2.9,4.0,2.186,2.194,8.413,7.561
536.0,8397474.788,-1.6,1.6,2.9,4.0,2.195,2.198,8.442,7.574
537.0,8412674.949,-1.6,1.6,2.9,4.0,2.199,2.201,8.455,7.58
538.0,8427889.021,-1.6,1.6,2.9,4.0,2.201,2.192,8.462,7.551
539.0,8443142.289,-1.6,1.6,2.9,4.0,2.191,2.183,8.428,7.519
540.0,8458407.393,-1.6,1.6,2.9,4.0,2.183,2.18,8.401,7.505
541.0,8473655.09,-1.6,1.6,2.9,4.0,2.183,2.194,8.4,7.559
542.0,8488883.854,-1.6,1.6,2.897,4.0,2.195,2.202,8.441,7.593
543.0,8504098.543,-1.6,1.6,2.9,4.0,2.203,2.199,8.468,7.577
544.0,8519340.438,-1.6,1.6,2.9,4.0,2.199,2.206,8.454,7.596
545.0,8534585.214,-1.6,1.6,2.9,4.0,2.206,2.191,8.476,7.548
546.0,8549813.674,-1.6,1.6,2.9,4.0,2.192,2.195,8.429,7.562
547.0,8565031.77,-1.6,1.6,2.9,4.0,2.197,2.2,8.447,7.583
548.0,8580226.956,-1.6,1.6,2.9,4.0,2.201,2.196,8.459,7.566
549.0,8595426.45,-1.6,1.601,2.9,4.0,2.197,2.199,8.446,7.579
550.0,8610641.192,-1.6,1.6,2.9,4.0,2.2,2.196,8.455,7.569
551.0,8625855.965,-1.6,1.6,2.9,4.0,2.197,2.193,8.446,7.556
552.0,8641100.027,-1.6,1.6,2.9,4.0,2.194,2.196,8.438,7.569
553.0,8656285.885,-1.6,1.6,2.9,4.0,2.198,2.195,8.448,7.564
554.0,8671516.008,-1.6,1.6,2.9,4.0,2.196,2.189,8.442,7.542
555.0,8686683.327,-1.6,1.6,2.9,4.0,2.191,2.195,8.423,7.562
556.0,8701901.76,-1.6,1.6,2.9,4.0,2.196,2.193,8.442,7.556
557.0,8717126.016,-1.6,1.6,2.9,4.0,2.194,2.191,8.435,7.551
558.0,8732343.442,-1.6,1.6,2.899,4.0,2.192,2.193,8.43,7.555
559.0,8747562.676,-1.6,1.6,2.9,4.0,2.194,2.194,8.436,7.558
560.0,8762794.635,-1.6,1.6,2.9,4.0,2.194,2.19,8.436,7.544
561.0,8777984.426,-1.6,1.6,2.9,4.0,2.191,2.191,8.424,7.548
562.0,8793185.164,-1.6,1.6,2.9,4.0,2.191,2.19,8.426,7.544
563.0,8808405.447,-1.6,1.6,2.9,4.0,2.191,2.192,8.426,7.555
564.0,8823542.261,-1.6,1.6,2.9,4.0,2.193,2.189,8.432,7.545
565.0,8838761.338,-1.6,1.6,2.9,4.0,2.19,2.183,8.421,7.517
566.0,8853968.014,-1.6,1.6,2.9,4.0,2.184,2.18,8.402,7.506
567.0,8869197.111,-1.6,1.6,2.9,4.0,2.181,2.186,8.393,7.53
568.0,8884380.272,-1.6,1.6,2.9,4.0,2.187,2.178,8.411,7.5
569.0,8899627.337,-1.6,1.6,2.9,4.0,2.179,2.179,8.387,7.504
570.0,8914864.186,-1.6,1.6,2.9,4.0,2.18,2.184,8.387,7.523
571.0,8930085.9,-1.6,1.6,2.9,4.0,2.185,2.179,8.406,7.506
572.0,8945330.516,-1.6,1.6,2.9,4.0,2.181,2.183,8.391,7.518
573.0,8960531.801,-1.6,1.6,2.9,4.0,2.184,2.184,8.403,7.523
574.0,8975723.628,-1.6,1.6,2.9,4.0,2.185,2.189,8.406,7.541
575.0,8990861.178,-1.6,1.6,2.9,4.0,2.19,2.185,8.421,7.528
576.0,9006081.098,-1.6,1.6,2.9,4.0,2.185,2.18,8.405,7.507
577.0,9021279.243,-1.6,1.6,2.9,4.0,2.182,2.178,8.394,7.505
578.0,9036482.511,-1.6,1.6,2.9,4.0,2.179,2.184,8.386,7.525
579.0,9051666.596,-1.6,1.6,2.9,4.0,2.185,2.186,8.405,7.533
580.0,9066839.363,-1.6,1.6,2.9,4.0,2.187,2.179,8.41,7.504
581.0,9082077.296,-1.6,1.6,2.9,4.0,2.179,2.18,8.386,7.507
582.0,9097304.369,-1.6,1.6,2.9,4.0,2.181,2.175,8.39,7.487
583.0,9112525.573,-1.6,1.6,2.9,4.0,2.176,2.175,8.376,7.49
584.0,9127702.553,-1.6,1.601,2.9,4.0,2.176,2.162,8.375,7.455
585.0,9143026.26,-1.6,1.6,2.9,4.0,2.16,2.145,8.322,7.375
586.0,9158218.378,-1.6,1.6,2.9,4.0,2.146,2.145,8.271,7.377
587.0,9173582.055,-1.6,1.6,2.9,4.0,2.145,2.137,8.27,7.341
588.0,9189000.918,-1.6,1.6,2.9,4.0,2.14,2.164,8.256,7.448
589.0,9204212.285,-1.6,1.6,2.9,4.0,2.166,2.169,8.34,7.466
590.0,9219447.036,-1.6,1.6,2.9,4.0,2.169,2.172,8.351,7.478
591.0,9234644.419,-1.6,1.6,2.9,4.0,2.174,2.174,8.367,7.487
592.0,9242189.604,-1.6,1.6,2.9,4.0,1.534,1.551,5.806,5.217
593.0,9257530.972,-1.6,1.6,2.9,4.0,2.19,2.165,8.43,7.451
594.0,9264994.589,-1.6,1.6,2.9,4.0,1.517,1.533,5.743,5.148
595.0,9272429.796,-1.6,1.6,2.9,4.0,1.517,1.52,5.745,5.101
596.0,9279856.735,-1.6,1.6,2.9,4.0,1.516,1.517,5.743,5.091
597.0,9295227.998,-1.6,1.6,2.9,4.0,2.182,2.164,8.407,7.447
598.0,9310448.655,-1.6,1.6,2.9,4.0,2.167,2.169,8.345,7.466
599.0,9325667.094,-1.6,1.6,2.9,4.0,2.172,2.175,8.361,7.49
600.0,9340867.901,-1.6,1.6,2.9,4.0,2.174,2.152,8.366,7.4
601.0,9356154.55,-1.6,1.6,2.9,4.0,2.154,2.165,8.3,7.452
602.0,9371331.563,-1.6,1.6,2.9,4.0,2.167,2.169,8.342,7.464
603.0,9386534.755,-1.6,1.6,2.9,4.0,2.17,2.168,8.355,7.462
604.0,9401718.71,-1.6,1.6,2.9,4.0,2.169,2.169,8.349,7.467
605.0,9416921.757,-1.6,1.6,2.9,4.0,2.171,2.173,8.354,7.483
606.0,9432173.56,-1.6,1.6,2.9,4.001,2.174,2.177,8.368,7.494
607.0,9439700.565,-1.6,1.6,2.9,4.0,1.535,1.543,5.807,5.187
608.0,9455067.788,-1.6,1.6,2.9,4.0,2.184,2.172,8.411,7.477
609.0,9470321.993,-1.6,1.6,2.9,4.0,2.173,2.169,8.364,7.467
610.0,9485512.058,-1.6,1.6,2.9,4.0,2.171,2.169,8.356,7.467
611.0,9500692.995,-1.6,1.6,2.9,4.0,2.17,2.168,8.351,7.462
612.0,9515877.725,-1.6,1.6,2.9,4.001,2.17,2.171,8.353,7.478
613.0,9531095.261,-1.6,1.6,2.9,4.0,2.172,2.172,8.36,7.478
614.0,9546232.092,-1.6,1.6,2.9,4.001,2.173,2.166,8.362,7.46
615.0,9561413.476,-1.6,1.6,2.9,4.001,2.167,2.166,8.343,7.457
616.0,9576593.558,-1.6,1.6,2.9,4.001,2.167,2.165,8.341,7.454
617.0,9591744.207,-1.6,1.6,2.9,4.001,2.166,2.164,8.338,7.449
618.0,9606951.768,-1.6,1.6,2.9,4.0,2.165,2.168,8.337,7.466
619.0,9622217.83,-1.6,1.6,2.9,4.0,2.168,2.163,8.351,7.448
620.0,9637427.22,-1.6,1.6,2.9,4.001,2.164,2.164,8.333,7.449
621.0,9652620.579,-1.609,1.6,2.895,4.0,2.164,2.163,8.332,7.447
622.0,9667808.417,-1.6,1.6,2.9,4.0,2.164,2.16,8.332,7.434
623.0,9682962.689,-1.6,1.6,2.9,4.001,2.161,2.159,8.322,7.432
624.0,9698127.383,-1.6,1.6,2.9,4.0,2.161,2.161,8.319,7.44
625.0,9705598.041,-1.6,1.6,2.9,4.0,1.517,1.536,5.743,5.16
626.0,9720867.169,-1.6,1.6,2.9,4.0,2.179,2.158,8.393,7.428
627.0,9736049.549,-1.6,1.6,2.9,4.0,2.161,2.163,8.319,7.448
628.0,9751240.039,-1.6,1.6,2.9,4.0,2.164,2.159,8.333,7.433
629.0,9766373.211,-1.6,1.6,2.9,4.001,2.159,2.152,8.315,7.405
630.0,9781616.246,-1.6,1.6,2.9,4.0,2.153,2.153,8.294,7.409
631.0,9796845.649,-1.6,1.6,2.9,4.0,2.155,2.157,8.3,7.424
632.0,9812027.886,-1.6,1.6,2.9,4.001,2.158,2.159,8.31,7.431
633.0,9827229.3,-1.6,1.6,2.9,4.0,2.16,2.16,8.318,7.437
634.0,9842429.435,-1.6,1.6,2.9,4.0,2.161,2.159,8.321,7.433
635.0,9857578.118,-1.6,1.6,2.9,4.0,2.16,2.151,8.318,7.403
636.0,9872796.001,-1.6,1.6,2.9,4.0,2.151,2.15,8.286,7.397
637.0,9888012.158,-1.6,1.6,2.9,4.0,2.151,2.143,8.289,7.373
638.0,9903235.619,-1.6,1.6,2.9,4.0,2.144,2.148,8.263,7.388
639.0,9918451.795,-1.6,1.6,2.9,4.0,2.149,2.148,8.28,7.389
640.0,9933598.424,-1.6,1.6,2.9,4.0,2.148,2.138,8.275,7.353
641.0,9948854.59,-1.6,1.6,2.9,4.0,2.138,2.134,8.243,7.336
642.0,9964108.833,-1.6,1.6,2.9,4.0,2.136,2.15,8.237,7.394
643.0,9979339.457,-1.6,1.6,2.9,4.0,2.151,2.154,8.287,7.413
644.0,9986781.707,-1.6,1.6,2.9,4.0,1.509,1.53,5.717,5.142
645.0,10002096.489,-1.6,1.6,2.9,4.0,2.174,2.147,8.371,7.386
646.0,10017252.256,-1.6,1.6,2.9,4.001,2.15,2.147,8.283,7.389
647.0,10032494.037,-1.6,1.6,2.9,4.0,2.148,2.141,8.275,7.364
648.0,10047721.983,-1.6,1.6,2.9,4.0,2.141,2.135,8.253,7.339
649.0,10062861.125,-1.6,1.6,2.9,4.0,2.137,2.136,8.24,7.342
650.0,10078062.012,-1.6,1.6,2.9,4.0,2.135,2.127,8.232,7.313
651.0,10093260.4,-1.6,1.6,2.9,4.0,2.129,2.131,8.211,7.327
652.0,10108473.896,-1.6,1.6,2.9,4.0,2.133,2.129,8.224,7.316
653.0,10123638.531,-1.6,1.6,2.9,4.0,2.129,2.133,8.213,7.337
654.0,10138842.911,-1.6,1.6,2.9,4.0,2.136,2.151,8.235,7.402
655.0,10146242.347,-1.6,1.6,2.9,4.0,1.502,1.519,5.688,5.101
656.0,10161530.111,-1.6,1.6,2.9,4.0,2.166,2.142,8.349,7.368
657.0,10176739.062,-1.6,1.6,2.9,4.0,2.144,2.142,8.262,7.368
658.0,10191931.997,-1.6,1.6,2.9,4.0,2.143,2.143,8.261,7.375
659.0,10207171.048,-1.6,1.6,2.9,4.0,2.144,2.141,8.262,7.365
660.0,10222375.096,-1.6,1.6,2.9,4.0,2.142,2.141,8.255,7.361
661.0,10229717.525,-1.6,1.6,2.9,4.0,1.488,1.508,5.638,5.062
662.0,10245019.037,-1.6,1.6,2.9,4.0,2.161,2.141,8.33,7.363
663.0,10260184.047,-1.6,1.6,2.9,4.0,2.142,2.138,8.256,7.354
664.0,10275374.704,-1.6,1.6,2.9,4.0,2.139,2.139,8.244,7.356
665.0,10290534.604,-1.6,1.6,2.9,4.0,2.138,2.126,8.24,7.308
666.0,10305704.989,-1.6,1.6,2.9,4.0,2.128,2.134,8.209,7.34
667.0,10320828.602,-1.6,1.6,2.9,4.001,2.135,2.132,8.229,7.333
668.0,10336110.652,-1.6,1.6,2.9,4.0,2.135,2.128,8.233,7.319
669.0,10351331.366,-1.6,1.6,2.9,4.0,2.126,2.114,8.203,7.264
670.0,10366589.284,-1.6,1.6,2.9,4.0,2.115,2.11,8.163,7.247
671.0,10381853.392,-1.6,1.6,2.9,4.0,2.111,2.111,8.152,7.251
672.0,10397080.067,-1.6,1.6,2.9,4.0,2.112,2.106,8.153,7.232
673.0,10412316.87,-1.6,1.6,2.9,4.0,2.106,2.101,8.135,7.212
674.0,10427580.006,-1.6,1.6,2.9,4.0,2.101,2.094,8.116,7.187
675.0,10442898.108,-1.6,1.6,2.9,4.0,2.097,2.104,8.103,7.224
676.0,10458168.839,-1.6,1.6,2.9,4.0,2.105,2.099,8.129,7.204
677.0,10473439.457,-1.6,1.6,2.9,4.0,2.099,2.097,8.109,7.196
678.0,10488722.712,-1.6,1.6,2.9,4.0,2.098,2.093,8.104,7.18
679.0,10504048.383,-1.6,1.6,2.9,4.0,2.093,2.098,8.089,7.2
680.0,10519321.351,-1.6,1.6,2.9,4.0,2.1,2.101,8.113,7.21
681.0,10534100.391,-1.6,1.6,2.814,4.0,2.101,1.882,8.117,6.548
682.0,10548692.192,-1.6,1.6,2.9,4.0,1.884,2.102,7.312,7.218
683.0,10563982.747,-1.6,1.6,2.9,4.0,2.102,2.095,8.119,7.19
684.0,10579281.553,-1.6,1.6,2.9,4.0,2.095,2.089,8.096,7.166
685.0,10594596.25,-1.6,1.6,2.9,4.0,2.089,2.084,8.075,7.146
686.0,10609904.89,-1.6,1.6,2.9,4.0,2.084,2.079,8.057,7.127
687.0,10625293.47,-1.6,1.6,2.9,4.0,2.081,2.092,8.048,7.176
688.0,10640542.631,-1.6,1.6,2.9,4.0,2.095,2.107,8.095,7.235
689.0,10655767.822,-1.6,1.6,2.9,4.0,2.107,2.105,8.136,7.229
690.0,10662879.872,-1.6,1.6,2.9,4.0,1.432,1.461,5.438,4.891
691.0,10678230.296,-1.6,1.6,2.9,4.0,2.133,2.113,8.236,7.257
692.0,10693438.774,-1.6,1.6,2.9,4.0,2.114,2.108,8.161,7.241
693.0,10708650.149,-1.6,1.6,2.9,4.0,2.109,2.108,8.141,7.239
694.0,10723864.789,-1.6,1.6,2.9,4.0,2.108,2.104,8.141,7.225
695.0,10739132.243,-1.6,1.6,2.9,4.0,2.105,2.115,8.13,7.264
696.0,10754353.518,-1.6,1.6,2.9,4.0,2.117,2.124,8.169,7.302
697.0,10769480.804,-1.6,1.6,2.9,4.0,2.126,2.125,8.198,7.308
698.0,10784642.731,-1.6,1.6,2.9,4.0,2.126,2.117,8.202,7.279
699.0,10799900.561,-1.6,1.6,2.9,4.0,2.116,2.108,8.167,7.241
700.0,10815151.479,-1.6,1.6,2.9,4.0,2.109,2.107,8.141,7.236
701.0,10830371.053,-1.6,1.6,2.9,4.0,2.107,2.099,8.135,7.207
702.0,10845609.51,-1.6,1.6,2.9,4.0,2.098,2.091,8.106,7.178
703.0,10860872.713,-1.6,1.6,2.9,4.0,2.091,2.084,8.083,7.149
704.0,10876165.272,-1.6,1.6,2.9,4.0,2.084,2.079,8.057,7.129
705.0,10891398.052,-1.6,1.601,2.9,4.0,2.082,2.095,8.051,7.193
706.0,10906605.539,-1.6,1.607,2.9,4.0,2.097,2.101,8.1,7.218
707.0,10921841.46,-1.6,1.6,2.9,4.0,2.101,2.096,8.115,7.198
708.0,10937110.017,-1.6,1.6,2.9,4.0,2.097,2.099,8.1,7.213
709.0,10952383.848,-1.6,1.6,2.9,4.0,2.1,2.087,8.112,7.163
710.0,10967695.276,-1.6,1.6,2.9,4.0,2.088,2.096,8.069,7.194
711.0,10982919.788,-1.6,1.6,2.9,4.0,2.098,2.097,8.104,7.201
712.0,10998140.41,-1.6,1.6,2.9,4.0,2.097,2.099,8.102,7.209
713.0,11013370.024,-1.6,1.6,2.9,4.0,2.1,2.103,8.112,7.223
714.0,11028538.766,-1.6,1.6,2.9,4.0,2.104,2.104,8.124,7.229
715.0,11043727.051,-1.6,1.6,2.9,4.0,2.105,2.106,8.127,7.234
716.0,11058934.18,-1.6,1.6,2.9,4.0,2.107,2.105,8.134,7.233
717.0,11074121.735,-1.6,1.6,2.9,4.0,2.106,2.102,8.129,7.22
718.0,11089332.664,-1.6,1.6,2.9,4.0,2.102,2.095,8.118,7.195
719.0,11104548.654,-1.6,1.6,2.9,4.0,2.095,2.09,8.095,7.176
720.0,11111534.444,-1.6,1.6,2.9,4.0,1.408,1.429,5.347,4.78
721.0,11126919.1,-1.6,1.6,2.9,4.0,2.11,2.079,8.156,7.132
722.0,11142264.59,-1.6,1.6,2.9,4.0,2.081,2.091,8.047,7.176
723.0,11157505.384,-1.6,1.6,2.9,4.0,2.094,2.095,8.089,7.195
724.0,11172736.455,-1.6,1.6,2.898,4.0,2.096,2.095,8.099,7.193
725.0,11187958.282,-1.6,1.6,2.9,4.0,2.095,2.089,8.094,7.171
726.0,11203167.549,-1.6,1.6,2.9,4.0,2.089,2.085,8.072,7.155
727.0,11218353.292,-1.6,1.6,2.9,4.0,2.087,2.102,8.066,7.217
728.0,11233560.561,-1.6,1.6,2.9,4.0,2.102,2.094,8.117,7.191
729.0,11248730.878,-1.6,1.6,2.9,4.0,2.095,2.091,8.091,7.179
730.0,11263922.636,-1.6,1.6,2.9,4.0,2.092,2.096,8.081,7.193
731.0,11279131.339,-1.6,1.6,2.9,4.0,2.098,2.098,8.103,7.205
732.0,11294307.437,-1.6,1.6,2.9,4.0,2.099,2.1,8.107,7.215
733.0,11309432.652,-1.6,1.6,2.9,4.0,2.102,2.105,8.115,7.231
734.0,11324549.839,-1.6,1.6,2.9,4.0,2.105,2.101,8.125,7.216
735.0,11339747.289,-1.6,1.6,2.9,4.0,2.102,2.103,8.114,7.224
736.0,11354925.48,-1.6,1.6,2.9,4.0,2.103,2.101,8.121,7.218
737.0,11370091.878,-1.6,1.6,2.9,4.0,2.102,2.101,8.118,7.218
738.0,11385261.048,-1.6,1.6,2.9,4.0,2.101,2.104,8.112,7.23
739.0,11392372.513,-1.6,1.6,2.9,4.0,1.437,1.456,5.454,4.879
740.0,11407682.121,-1.6,1.6,2.9,4.0,2.122,2.091,8.194,7.177
741.0,11422805.17,-1.6,1.6,2.9,4.0,2.091,2.088,8.079,7.169
742.0,11438067.484,-1.6,1.6,2.9,4.0,2.09,2.095,8.075,7.195
743.0,11453252.387,-1.6,1.6,2.9,4.0,2.096,2.09,8.097,7.176
744.0,11460257.442,-1.6,1.6,2.9,4.0,1.411,1.434,5.36,4.799
745.0,11475609.512,-1.6,1.6,2.9,4.0,2.111,2.084,8.16,7.152
746.0,11490785.141,-1.6,1.6,2.9,4.0,2.086,2.085,8.062,7.157
747.0,11505987.319,-1.6,1.6,2.9,4.0,2.085,2.081,8.057,7.142
748.0,11521150.286,-1.6,1.6,2.9,4.0,2.08,2.073,8.042,7.113
749.0,11536380.79,-1.6,1.6,2.9,4.0,2.073,2.065,8.017,7.08
750.0,11551511.225,-1.6,1.6,2.9,4.0,2.065,2.061,7.991,7.064
751.0,11566779.824,-1.6,1.6,2.9,4.0,2.061,2.058,7.977,7.051
752.0,11581996.564,-1.6,1.6,2.9,4.0,2.06,2.069,7.974,7.096
753.0,11597212.315,-1.6,1.6,2.9,4.0,2.07,2.07,8.006,7.099
754.0,11612430.86,-1.6,1.6,2.9,4.0,2.07,2.066,8.008,7.086
755.0,11627659.298,-1.6,1.6,2.898,4.0,2.067,2.062,7.995,7.069
756.0,11642907.081,-1.6,1.6,2.9,4.0,2.062,2.058,7.98,7.055
757.0,11658214.871,-1.6,1.6,2.9,4.0,2.059,2.069,7.969,7.093
758.0,11673436.289,-1.6,1.6,2.9,4.0,2.071,2.079,8.008,7.13
759.0,11688641.2,-1.6,1.6,2.9,4.0,2.08,2.073,8.042,7.113
760.0,11703842.372,-1.6,1.6,2.9,4.0,2.074,2.07,8.019,7.1
761.0,11719063.621,-1.6,1.6,2.9,4.0,2.07,2.065,8.006,7.082
762.0,11734299.153,-1.6,1.6,2.9,4.0,2.065,2.061,7.989,7.065
763.0,11749591.039,-1.6,1.6,2.9,4.0,2.062,2.075,7.981,7.118
764.0,11764769.736,-1.6,1.6,2.9,4.0,2.075,2.066,8.023,7.084
765.0,11780008.566,-1.6,1.6,2.9,4.0,2.066,2.075,7.992,7.116
766.0,11795177.543,-1.6,1.6,2.9,4.0,2.076,2.071,8.026,7.104
767.0,11810389.558,-1.6,1.6,2.9,4.0,2.071,2.066,8.01,7.088
768.0,11825626.561,-1.6,1.6,2.9,4.0,2.067,2.066,7.994,7.084
769.0,11840803.802,-1.6,1.6,2.9,4.0,2.067,2.069,7.996,7.094
770.0,11847678.853,-1.6,1.6,2.9,4.0,1.384,1.404,5.264,4.692
771.0,11854534.478,-1.6,1.6,2.9,4.0,1.384,1.395,5.263,4.66
772.0,11870006.958,-1.6,1.6,2.9,4.0,2.098,2.07,8.117,7.096
773.0,11885223.044,-1.6,1.6,2.9,4.0,2.072,2.067,8.011,7.088
774.0,11900467.295,-1.6,1.6,2.9,4.0,2.068,2.071,7.999,7.105
775.0,11915638.872,-1.6,1.6,2.9,4.0,2.072,2.073,8.013,7.113
776.0,11930804.15,-1.6,1.6,2.9,4.0,2.074,2.062,8.018,7.074
777.0,11946056.51,-1.6,1.6,2.9,4.0,2.063,2.061,7.982,7.068
778.0,11961275.24,-1.6,1.6,2.9,4.0,2.062,2.063,7.978,7.074
779.0,11976475.264,-1.6,1.6,2.9,4.0,2.063,2.06,7.982,7.063
780.0,11991676.768,-1.6,1.6,2.9,4.0,2.06,2.056,7.972,7.049
781.0,12006922.414,-1.6,1.6,2.9,4.0,2.059,2.061,7.967,7.072
782.0,12022081.702,-1.6,1.6,2.9,4.0,2.06,2.059,7.972,7.064
783.0,12037228.346,-1.6,1.6,2.9,4.0,2.059,2.058,7.968,7.06
784.0,12052414.108,-1.6,1.6,2.9,4.0,2.059,2.063,7.968,7.076
785.0,12067591.525,-1.6,1.6,2.9,4.0,2.064,2.06,7.983,7.066
786.0,12082776.022,-1.6,1.6,2.9,4.0,2.061,2.058,7.974,7.057
787.0,12097907.671,-1.6,1.6,2.9,4.0,2.059,2.06,7.965,7.064
788.0,12113112.064,-1.6,1.6,2.9,4.0,2.06,2.051,7.97,7.031
789.0,12128331.782,-1.6,1.6,2.9,4.0,2.051,2.05,7.942,7.027
790.0,12143526.981,-1.6,1.6,2.9,4.0,2.051,2.052,7.938,7.033
791.0,12150261.135,-1.6,1.6,2.9,4.0,1.35,1.376,5.13,4.589
792.0,12165661.122,-1.6,1.6,2.9,4.0,2.076,2.048,8.039,7.016
793.0,12180859.959,-1.6,1.6,2.9,4.0,2.05,2.05,7.936,7.023
794.0,12196089.438,-1.6,1.6,2.9,4.0,2.049,2.046,7.935,7.01
795.0,12211314.438,-1.6,1.6,2.9,4.0,2.047,2.045,7.928,7.006
796.0,12226531.443,-1.6,1.6,2.9,4.0,2.048,2.054,7.928,7.042
797.0,12241640.025,-1.6,1.6,2.9,4.0,2.055,2.055,7.952,7.047
798.0,12256801.721,-1.6,1.6,2.9,4.0,2.055,2.06,7.951,7.063
799.0,12271934.901,-1.6,1.6,2.9,4.0,2.061,2.056,7.972,7.051
800.0,12287091.096,-1.6,1.6,2.9,4.0,2.057,2.057,7.959,7.056
801.0,12300716.637,-1.6,1.6,3.279,4.0,2.06,1.529,7.968,5.406