File: Li-ion_Batteries/UL-PUR_N20-OV1_18650_NCA_23C_0-100_0.5-0.5C_a_cycle_data.csv
Cycle_Index,Test_Time (s),Min_Current (A),Max_Current (A),Min_Voltage (V),Max_Voltage (V),Charge_Capacity (Ah),Discharge_Capacity (Ah),Charge_Energy (Wh),Discharge_Energy (Wh)
1.0,20859.928,-1.601,1.599,2.699,4.2,1.934,3.3,7.815,11.534
2.0,44969.34,-1.601,1.599,2.699,4.2,3.432,3.283,13.291,11.485
3.0,69324.815,-1.601,1.599,2.699,4.2,3.419,3.264,13.228,11.398
4.0,93646.572,-1.601,1.599,2.699,4.2,3.401,3.266,13.172,11.412
5.0,117717.986,-1.601,1.599,2.699,4.2,3.401,3.266,13.163,11.42
6.0,141681.597,-1.601,1.599,2.699,4.2,3.4,3.265,13.155,11.419
7.0,166142.446,-1.601,1.6,2.699,4.2,3.398,3.257,13.154,11.37
8.0,190558.768,-1.601,1.599,2.699,4.2,3.394,3.258,13.144,11.371
9.0,214687.041,-1.601,1.599,2.699,4.2,3.392,3.26,13.13,11.386
10.0,239125.804,-1.601,1.599,2.699,4.2,3.396,3.257,13.14,11.37
11.0,263705.563,-1.601,1.604,2.699,4.2,3.392,3.256,13.137,11.357
12.0,288051.783,-1.601,1.599,2.699,4.2,3.39,3.259,13.127,11.377
13.0,312487.119,-1.601,1.599,2.699,4.2,3.392,3.259,13.135,11.37
14.0,337241.54,-1.601,1.599,2.699,4.2,3.392,3.251,13.132,11.328
15.0,362079.138,-1.601,1.599,2.699,4.2,3.386,3.249,13.117,11.314
16.0,386749.478,-1.601,1.599,2.699,4.2,3.385,3.252,13.114,11.332
17.0,411741.619,-1.601,1.599,2.699,4.2,3.387,3.24,13.119,11.28
18.0,436897.523,-1.601,1.599,2.699,4.2,3.378,3.24,13.105,11.268
19.0,461941.388,-1.601,1.599,2.699,4.2,3.378,3.244,13.105,11.285
20.0,486916.555,-1.601,1.599,2.699,4.2,3.382,3.246,13.112,11.296
21.0,510674.304,-1.601,1.599,2.699,4.2,3.383,3.239,13.113,11.26
22.0,532896.871,-1.601,1.599,2.699,4.2,3.375,3.239,13.092,11.256
23.0,555089.993,-1.601,1.599,2.699,4.2,3.377,3.238,13.092,11.258
24.0,577226.101,-1.601,1.599,2.699,4.2,3.376,3.238,13.089,11.259
25.0,599772.467,-1.601,1.599,2.699,4.2,3.375,3.231,13.092,11.218
26.0,622225.503,-1.601,1.599,2.699,4.2,3.368,3.232,13.072,11.217
27.0,644795.64,-1.601,1.599,2.699,4.2,3.371,3.232,13.081,11.222
28.0,667366.235,-1.601,1.599,2.699,4.2,3.369,3.225,13.075,11.198
29.0,690246.733,-1.601,1.599,2.699,4.2,3.361,3.22,13.063,11.162
30.0,712965.25,-1.601,1.599,2.699,4.2,3.36,3.225,13.054,11.187
31.0,735534.894,-1.601,1.599,2.699,4.2,3.363,3.229,13.061,11.202
32.0,758328.478,-1.602,1.599,2.699,4.2,3.365,3.215,13.063,11.152
33.0,781219.398,-1.601,1.599,2.699,4.2,3.352,3.216,13.033,11.137
34.0,804021.378,-1.601,1.599,2.699,4.2,3.356,3.219,13.043,11.155
35.0,826678.031,-1.601,1.599,2.699,4.2,3.357,3.221,13.043,11.164
36.0,849740.606,-1.601,1.599,2.699,4.2,3.36,3.209,13.047,11.103
37.0,872798.044,-1.601,1.599,2.699,4.2,3.35,3.21,13.024,11.104
38.0,895683.088,-1.601,1.599,2.699,4.2,3.35,3.213,13.026,11.121
39.0,918707.244,-1.601,1.599,2.699,4.2,3.353,3.213,13.032,11.119
40.0,942102.869,-1.601,1.599,2.699,4.2,3.352,3.204,13.028,11.069
41.0,965180.788,-1.601,1.599,2.699,4.2,3.344,3.214,13.01,11.117
42.0,988040.87,-1.601,1.599,2.699,4.2,3.35,3.221,13.018,11.151
43.0,1011014.208,-1.601,1.599,2.699,4.2,3.354,3.219,13.032,11.147
44.0,1034481.685,-1.601,1.599,2.699,4.2,3.354,3.204,13.04,11.068
45.0,1057850.438,-1.601,1.599,2.699,4.2,3.344,3.209,13.012,11.089
46.0,1080908.276,-1.601,1.599,2.699,4.2,3.349,3.212,13.025,11.105
47.0,1104117.405,-1.601,1.599,2.699,4.2,3.349,3.207,13.018,11.083
48.0,1127471.632,-1.601,1.599,2.699,4.2,3.344,3.201,13.012,11.054
49.0,1150874.642,-1.601,1.599,2.699,4.2,3.348,3.2,13.029,11.052
50.0,1174146.325,-1.601,1.599,2.699,4.2,3.348,3.204,13.024,11.069
51.0,1197873.633,-1.601,1.599,2.699,4.2,3.351,3.194,13.033,11.011
52.0,1221560.62,-1.601,1.599,2.699,4.2,3.343,3.195,13.017,11.024
53.0,1245134.643,-1.601,1.599,2.699,4.2,3.345,3.197,13.021,11.041
54.0,1268583.294,-1.601,1.599,2.699,4.2,3.347,3.195,13.028,11.03
55.0,1292496.919,-1.601,1.599,2.699,4.2,3.341,3.189,13.017,10.985
56.0,1316260.987,-1.601,1.599,2.699,4.2,3.339,3.192,13.007,11.001
57.0,1339956.718,-1.601,1.599,2.699,4.2,3.343,3.196,13.019,11.02
58.0,1363766.911,-1.601,1.599,2.699,4.2,3.344,3.188,13.021,10.994
59.0,1387590.565,-1.601,1.6,2.699,4.2,3.336,3.184,12.998,10.96
60.0,1411627.686,-1.601,1.599,2.699,4.2,3.337,3.186,13.007,10.967
61.0,1435485.096,-1.601,1.599,2.699,4.2,3.336,3.184,13.002,10.965
62.0,1459492.112,-1.601,1.599,2.699,4.2,3.334,3.18,12.993,10.938
63.0,1483535.646,-1.601,1.599,2.699,4.2,3.331,3.182,12.989,10.94
64.0,1507433.542,-1.601,1.599,2.699,4.2,3.335,3.183,12.999,10.952
65.0,1531447.02,-1.601,1.599,2.699,4.2,3.333,3.176,12.988,10.93
66.0,1555953.857,-1.601,1.599,2.699,4.2,3.325,3.173,12.979,10.899
67.0,1580148.095,-1.601,1.599,2.699,4.2,3.32,3.177,12.955,10.909
68.0,1604270.516,-1.601,1.599,2.699,4.2,3.325,3.18,12.966,10.931
69.0,1628638.894,-1.601,1.599,2.699,4.2,3.327,3.171,12.969,10.875
70.0,1653213.836,-1.601,1.599,2.699,4.2,3.318,3.168,12.953,10.864
71.0,1677664.238,-1.601,1.599,2.699,4.2,3.318,3.173,12.955,10.888
72.0,1701876.539,-1.601,1.599,2.699,4.2,3.323,3.174,12.966,10.904
73.0,1726659.567,-1.601,1.599,2.699,4.2,3.322,3.165,12.973,10.844
74.0,1751189.005,-1.601,1.599,2.699,4.2,3.315,3.167,12.95,10.858
75.0,1775435.241,-1.601,1.599,2.699,4.2,3.317,3.171,12.95,10.881
76.0,1799790.62,-1.601,1.599,2.699,4.2,3.32,3.162,12.954,10.835
77.0,1824361.237,-1.601,1.599,2.699,4.2,3.31,3.163,12.93,10.836
78.0,1849009.254,-1.603,1.599,2.699,4.2,3.313,3.166,12.938,10.858
79.0,1873509.715,-1.601,1.599,2.699,4.2,3.317,3.167,12.951,10.855
80.0,1898164.049,-1.601,1.599,2.699,4.2,3.315,3.159,12.949,10.816
81.0,1922737.671,-1.601,1.599,2.699,4.2,3.312,3.162,12.943,10.831
82.0,1947291.182,-1.601,1.599,2.699,4.2,3.313,3.162,12.939,10.833
83.0,1971954.693,-1.601,1.599,2.699,4.2,3.311,3.156,12.932,10.797
84.0,1997045.267,-1.601,1.599,2.699,4.2,3.311,3.157,12.943,10.793
85.0,2021932.746,-1.601,1.599,2.699,4.2,3.312,3.158,12.944,10.805
86.0,2046646.124,-1.601,1.599,2.699,4.2,3.311,3.159,12.94,10.813
87.0,2071659.618,-1.601,1.599,2.699,4.2,3.307,3.156,12.925,10.788
88.0,2096330.788,-1.601,1.599,2.699,4.2,3.301,3.153,12.907,10.776
89.0,2121014.458,-1.601,1.599,2.699,4.2,3.304,3.155,12.918,10.786
90.0,2145769.832,-1.601,1.599,2.699,4.2,3.306,3.151,12.919,10.771
91.0,2170670.945,-1.601,1.599,2.699,4.2,3.302,3.152,12.912,10.766
92.0,2195499.326,-1.601,1.599,2.699,4.2,3.309,3.154,12.932,10.786
93.0,2220229.034,-1.601,1.599,2.699,4.2,3.308,3.156,12.926,10.796
94.0,2245116.483,-1.601,1.599,2.699,4.2,3.307,3.147,12.923,10.746
95.0,2270250.2,-1.601,1.599,2.699,4.2,3.302,3.15,12.922,10.754
96.0,2295335.373,-1.601,1.599,2.699,4.2,3.304,3.147,12.92,10.751
97.0,2320524.028,-1.601,1.599,2.699,4.2,3.299,3.139,12.903,10.703
98.0,2345608.449,-1.601,1.599,2.699,4.2,3.289,3.14,12.883,10.698
99.0,2370820.573,-1.601,1.599,2.699,4.2,3.299,3.144,12.911,10.724
100.0,2396068.705,-1.601,1.599,2.699,4.2,3.302,3.14,12.92,10.717
101.0,2421626.11,-1.601,1.599,2.699,4.2,3.294,3.135,12.899,10.671
102.0,2446787.814,-1.601,1.599,2.699,4.2,3.291,3.138,12.889,10.696
103.0,2472087.245,-1.601,1.599,2.699,4.2,3.297,3.142,12.902,10.705
104.0,2497376.155,-1.601,1.599,2.699,4.2,3.293,3.131,12.89,10.658
105.0,2522716.707,-1.601,1.599,2.699,4.2,3.284,3.135,12.87,10.669
106.0,2547768.753,-1.601,1.599,2.699,4.2,3.289,3.138,12.878,10.688
107.0,2573065.424,-1.601,1.599,2.699,4.2,3.294,3.136,12.893,10.68
108.0,2598533.066,-1.601,1.599,2.699,4.2,3.289,3.131,12.879,10.651
109.0,2623819.604,-1.601,1.599,2.699,4.2,3.288,3.139,12.877,10.695
110.0,2649100.487,-1.601,1.599,2.699,4.2,3.29,3.132,12.878,10.654
111.0,2674551.8,-1.601,1.599,2.699,4.2,3.287,3.131,12.88,10.654
112.0,2700206.291,-1.601,1.599,2.699,4.2,3.286,3.127,12.881,10.63
113.0,2725851.338,-1.601,1.599,2.699,4.2,3.29,3.123,12.886,10.605
114.0,2751428.999,-1.601,1.599,2.699,4.2,3.285,3.12,12.872,10.595
115.0,2777248.612,-1.601,1.6,2.699,4.2,3.279,3.122,12.859,10.592
116.0,2803194.62,-1.601,1.599,2.699,4.2,3.285,3.126,12.878,10.615
117.0,2829118.225,-1.601,1.599,2.699,4.2,3.284,3.118,12.872,10.586
118.0,2854831.515,-1.601,1.599,2.699,4.2,3.274,3.113,12.847,10.556
119.0,2880770.816,-1.601,1.599,2.699,4.2,3.272,3.12,12.84,10.583
120.0,2906600.507,-1.601,1.599,2.699,4.2,3.276,3.118,12.855,10.582
121.0,2932525.92,-1.613,1.599,2.699,4.2,3.274,3.106,12.84,10.517
122.0,2958876.142,-1.601,1.599,2.699,4.2,3.272,3.11,12.845,10.535
123.0,2985044.218,-1.601,1.599,2.699,4.2,3.275,3.115,12.853,10.56
124.0,3011196.918,-1.601,1.599,2.699,4.2,3.276,3.113,12.85,10.551
125.0,3037615.311,-1.601,1.599,2.699,4.2,3.267,3.103,12.828,10.498
126.0,3063946.206,-1.601,1.599,2.699,4.2,3.259,3.104,12.802,10.504
127.0,3090173.041,-1.601,1.6,2.699,4.2,3.261,3.105,12.806,10.508
128.0,3116641.713,-1.601,1.599,2.699,4.2,3.258,3.109,12.797,10.512
129.0,3142802.557,-1.601,1.599,2.699,4.2,3.259,3.109,12.796,10.524
130.0,3169067.583,-1.601,1.599,2.699,4.2,3.26,3.104,12.797,10.498
131.0,3195224.542,-1.601,1.599,2.699,4.2,3.255,3.103,12.784,10.494
132.0,3221488.301,-1.601,1.599,2.699,4.2,3.256,3.105,12.792,10.501
133.0,3247742.799,-1.601,1.609,2.699,4.2,3.256,3.101,12.784,10.485
134.0,3273943.052,-1.601,1.599,2.699,4.2,3.25,3.096,12.768,10.466
135.0,3300355.253,-1.601,1.599,2.699,4.2,3.249,3.097,12.768,10.463
136.0,3326503.306,-1.601,1.599,2.699,4.2,3.25,3.098,12.765,10.473
137.0,3352829.73,-1.601,1.599,2.699,4.2,3.25,3.093,12.767,10.448
138.0,3379448.296,-1.601,1.599,2.699,4.2,3.251,3.093,12.776,10.45
139.0,3405795.395,-1.601,1.599,2.699,4.2,3.248,3.098,12.77,10.473
140.0,3432216.206,-1.601,1.599,2.699,4.2,3.252,3.092,12.769,10.443
141.0,3458538.952,-1.601,1.599,2.699,4.2,3.243,3.085,12.748,10.408
142.0,3484980.953,-1.601,1.599,2.699,4.2,3.246,3.091,12.758,10.444
143.0,3511413.434,-1.601,1.599,2.699,4.2,3.248,3.089,12.761,10.431
144.0,3537969.3,-1.601,1.599,2.699,4.2,3.248,3.09,12.763,10.432
145.0,3564765.735,-1.609,1.599,2.699,4.2,3.245,3.08,12.756,10.38
146.0,3591473.001,-1.601,1.599,2.699,4.2,3.244,3.089,12.757,10.433
147.0,3618098.805,-1.601,1.599,2.699,4.2,3.24,3.089,12.739,10.409
148.0,3644753.833,-1.601,1.599,2.699,4.2,3.24,3.087,12.737,10.418
149.0,3671609.606,-1.601,1.599,2.699,4.2,3.238,3.09,12.741,10.427
150.0,3698300.126,-1.601,1.599,2.699,4.2,3.237,3.083,12.726,10.401
151.0,3724770.265,-1.601,1.599,2.699,4.2,3.23,3.086,12.703,10.413
152.0,3751158.36,-1.601,1.599,2.699,4.2,3.232,3.087,12.707,10.421
153.0,3777481.654,-1.601,1.599,2.699,4.2,3.234,3.088,12.705,10.42
154.0,3803786.327,-1.601,1.599,2.699,4.2,3.233,3.085,12.704,10.415
155.0,3830033.656,-1.601,1.599,2.699,4.2,3.232,3.085,12.696,10.413
156.0,3856181.096,-1.601,1.599,2.699,4.2,3.232,3.082,12.698,10.404
157.0,3882828.183,-1.601,1.599,2.699,4.2,3.233,3.078,12.704,10.377
158.0,3909625.91,-1.601,1.599,2.699,4.2,3.232,3.077,12.709,10.373
159.0,3936111.022,-1.601,1.599,2.699,4.2,3.228,3.079,12.692,10.384
160.0,3962713.707,-1.601,1.599,2.699,4.2,3.23,3.075,12.694,10.364
161.0,3989456.192,-1.601,1.599,2.699,4.2,3.221,3.073,12.673,10.346
162.0,4016230.208,-1.601,1.599,2.699,4.2,3.222,3.075,12.676,10.359
163.0,4042823.307,-1.601,1.599,2.699,4.2,3.223,3.069,12.67,10.33
164.0,4069876.9,-1.601,1.614,2.699,4.2,3.22,3.066,12.674,10.314
165.0,4096534.107,-1.601,1.599,2.699,4.2,3.214,3.067,12.65,10.326
166.0,4123304.46,-1.601,1.599,2.699,4.2,3.218,3.063,12.663,10.318
167.0,4150588.801,-1.601,1.599,2.699,4.2,3.22,3.055,12.679,10.264
168.0,4177955.824,-1.601,1.599,2.699,4.2,3.221,3.058,12.691,10.281
169.0,4205011.325,-1.601,1.599,2.699,4.2,3.225,3.064,12.7,10.32
170.0,4232451.795,-1.601,1.599,2.699,4.2,3.228,3.06,12.709,10.291
171.0,4259585.233,-1.601,1.599,2.699,4.2,3.218,3.054,12.672,10.269
172.0,4286920.525,-1.601,1.599,2.699,4.2,3.222,3.058,12.688,10.292
173.0,4314124.439,-1.601,1.599,2.699,4.2,3.223,3.053,12.684,10.275
174.0,4341562.753,-1.601,1.599,2.699,4.2,3.216,3.049,12.674,10.247
175.0,4368789.783,-1.601,1.599,2.699,4.2,3.219,3.053,12.677,10.27
176.0,4396059.433,-1.601,1.599,2.699,4.2,3.221,3.051,12.68,10.265
177.0,4423520.912,-1.601,1.599,2.699,4.2,3.217,3.049,12.672,10.245
178.0,4450879.201,-1.601,1.599,2.699,4.2,3.217,3.05,12.671,10.258
179.0,4478120.43,-1.601,1.599,2.699,4.2,3.216,3.05,12.66,10.25
180.0,4505735.784,-1.601,1.599,2.699,4.2,3.209,3.041,12.64,10.204
181.0,4533200.759,-1.601,1.599,2.699,4.2,3.203,3.04,12.63,10.2
182.0,4560986.601,-1.601,1.599,2.699,4.2,3.208,3.044,12.648,10.227
183.0,4589098.089,-1.601,1.599,2.699,4.2,3.209,3.035,12.651,10.16
184.0,4616876.024,-1.602,1.599,2.699,4.2,3.206,3.038,12.644,10.191
185.0,4644563.656,-1.601,1.599,2.699,4.2,3.204,3.036,12.634,10.182
186.0,4672527.259,-1.601,1.604,2.699,4.2,3.198,3.025,12.612,10.118
187.0,4700581.503,-1.601,1.599,2.699,4.2,3.193,3.024,12.611,10.126
188.0,4728426.514,-1.601,1.599,2.699,4.2,3.196,3.027,12.612,10.144
189.0,4756650.69,-1.601,1.599,2.699,4.2,3.193,3.016,12.602,10.08
190.0,4784858.526,-1.601,1.599,2.699,4.2,3.19,3.025,12.609,10.137
191.0,4812790.921,-1.601,1.599,2.699,4.2,3.195,3.022,12.604,10.129
192.0,4841036.358,-1.601,1.599,2.699,4.2,3.189,3.021,12.594,10.111
193.0,4869084.143,-1.601,1.599,2.699,4.2,3.192,3.022,12.604,10.126
194.0,4896910.366,-1.601,1.599,2.699,4.2,3.189,3.025,12.585,10.138
195.0,4924616.701,-1.601,1.599,2.699,4.2,3.193,3.028,12.592,10.157
196.0,4952121.653,-1.601,1.599,2.699,4.2,3.192,3.026,12.588,10.156
197.0,4979844.226,-1.601,1.599,2.699,4.2,3.19,3.022,12.582,10.123
198.0,5007899.921,-1.601,1.599,2.699,4.2,3.187,3.014,12.577,10.087
199.0,5036046.633,-1.601,1.599,2.699,4.2,3.184,3.016,12.581,10.091
200.0,5064058.246,-1.601,1.599,2.699,4.2,3.183,3.016,12.565,10.094
201.0,5092090.875,-1.601,1.599,2.699,4.2,3.183,3.011,12.567,10.072
202.0,5120646.706,-1.601,1.599,2.699,4.2,3.189,3.009,12.603,10.06
203.0,5148978.024,-1.601,1.599,2.699,4.2,3.184,3.008,12.58,10.061
204.0,5176911.317,-1.601,1.599,2.699,4.2,3.183,3.014,12.571,10.094
205.0,5204657.616,-1.601,1.599,2.699,4.2,3.184,3.013,12.565,10.092
206.0,5232744.2,-1.601,1.599,2.699,4.2,3.185,3.013,12.571,10.086
207.0,5261098.341,-1.601,1.599,2.699,4.2,3.182,3.003,12.567,10.037
208.0,5289436.287,-1.601,1.599,2.699,4.2,3.175,3.003,12.55,10.037
209.0,5317602.514,-1.601,1.599,2.699,4.2,3.173,3.001,12.537,10.029
210.0,5345809.815,-1.601,1.599,2.699,4.2,3.171,2.997,12.527,10.014
211.0,5374685.781,-1.601,1.599,2.699,4.2,3.173,2.998,12.548,10.01
212.0,5403318.008,-1.601,1.599,2.699,4.2,3.179,2.998,12.568,10.015
213.0,5432034.789,-1.601,1.599,2.699,4.2,3.175,2.996,12.548,10.011
214.0,5460479.533,-1.601,1.599,2.699,4.2,3.167,2.992,12.524,9.986
215.0,5488796.657,-1.601,1.599,2.699,4.2,3.168,2.994,12.525,10.008
216.0,5517135.238,-1.601,1.599,2.699,4.2,3.167,2.991,12.517,9.988
217.0,5545656.413,-1.601,1.599,2.699,4.2,3.164,2.992,12.512,9.988
218.0,5574467.517,-1.601,1.599,2.699,4.2,3.169,2.994,12.534,9.995
219.0,5603196.21,-1.601,1.599,2.699,4.2,3.167,2.989,12.523,9.975
220.0,5631585.255,-1.601,1.599,2.699,4.2,3.152,2.979,12.47,9.927
221.0,5660134.749,-1.601,1.599,2.699,4.2,3.15,2.987,12.481,9.967
222.0,5688110.838,-1.601,1.599,2.699,4.2,3.158,2.999,12.489,10.035
223.0,5716100.273,-1.601,1.599,2.699,4.2,3.169,2.997,12.507,10.031
224.0,5744154.336,-1.601,1.599,2.699,4.2,3.161,2.991,12.486,10.001
225.0,5772035.816,-1.601,1.599,2.699,4.2,3.154,2.997,12.467,10.033
226.0,5799392.446,-1.601,1.599,2.699,4.2,3.162,2.997,12.472,10.03
227.0,5826906.254,-1.601,1.599,2.699,4.2,3.162,3.0,12.479,10.051
228.0,5854175.795,-1.601,1.599,2.699,4.2,3.162,2.995,12.472,10.039
229.0,5882880.753,-1.601,1.599,2.699,4.2,3.153,2.976,12.461,9.908
230.0,5911620.312,-1.601,1.599,2.699,4.2,3.147,2.977,12.459,9.922
231.0,5940159.574,-1.601,1.599,2.699,4.2,3.147,2.976,12.455,9.917
232.0,5969179.069,-1.601,1.612,2.699,4.2,3.148,2.972,12.468,9.888
233.0,5998094.917,-1.601,1.599,2.699,4.2,3.145,2.97,12.459,9.888
234.0,6026527.253,-1.601,1.599,2.699,4.2,3.137,2.968,12.416,9.89
235.0,6054886.989,-1.601,1.599,2.699,4.2,3.131,2.963,12.397,9.861
236.0,6083783.627,-1.601,1.599,2.699,4.2,3.137,2.968,12.425,9.875
237.0,6112670.269,-1.601,1.599,2.699,4.2,3.139,2.966,12.436,9.871
238.0,6141491.529,-1.601,1.599,2.699,4.2,3.138,2.969,12.421,9.878
239.0,6169800.211,-1.601,1.599,2.699,4.2,3.137,2.976,12.418,9.929
240.0,6198094.865,-1.601,1.599,2.699,4.2,3.138,2.967,12.412,9.895
241.0,6226650.264,-1.601,1.599,2.699,4.2,3.135,2.962,12.41,9.862
242.0,6254896.173,-1.601,1.599,2.699,4.2,3.132,2.962,12.4,9.866
243.0,6283307.555,-1.601,1.599,2.699,4.2,3.135,2.965,12.409,9.889
244.0,6311566.521,-1.601,1.599,2.699,4.2,3.13,2.956,12.387,9.839
245.0,6340404.844,-1.601,1.599,2.699,4.2,3.13,2.962,12.394,9.86
246.0,6369397.112,-1.602,1.599,2.699,4.2,3.14,2.964,12.433,9.865
247.0,6398338.825,-1.601,1.599,2.699,4.2,3.133,2.955,12.41,9.819
248.0,6427415.049,-1.601,1.599,2.699,4.2,3.128,2.95,12.393,9.795
249.0,6456422.285,-1.609,1.599,2.699,4.2,3.127,2.954,12.394,9.82
250.0,6485596.582,-1.601,1.599,2.699,4.2,3.127,2.952,12.392,9.804
251.0,6514090.47,-1.601,1.599,2.699,4.2,3.125,2.957,12.375,9.843
252.0,6542420.496,-1.601,1.599,2.699,4.2,3.123,2.954,12.369,9.835
253.0,6570910.54,-1.601,1.599,2.699,4.2,3.124,2.953,12.372,9.826
254.0,6599582.397,-1.601,1.599,2.699,4.2,3.127,2.953,12.384,9.829
255.0,6628005.163,-1.601,1.599,2.699,4.2,3.122,2.951,12.364,9.821
256.0,6656345.094,-1.601,1.599,2.699,4.2,3.121,2.955,12.36,9.835
257.0,6684213.725,-1.601,1.599,2.699,4.2,3.127,2.961,12.367,9.877
258.0,6712249.379,-1.601,1.599,2.699,4.2,3.127,2.953,12.363,9.843
259.0,6740684.78,-1.601,1.599,2.699,4.2,3.116,2.943,12.341,9.779
260.0,6768862.072,-1.601,1.599,2.699,4.2,3.11,2.937,12.318,9.768
261.0,6797318.289,-1.601,1.599,2.699,4.2,3.11,2.942,12.324,9.779
262.0,6826052.395,-1.601,1.599,2.699,4.2,3.115,2.943,12.344,9.78
263.0,6855009.459,-1.601,1.599,2.699,4.2,3.116,2.942,12.349,9.779
264.0,6883756.148,-1.601,1.599,2.699,4.2,3.11,2.936,12.328,9.755
265.0,6912389.656,-1.601,1.599,2.699,4.2,3.106,2.933,12.314,9.736
266.0,6941284.292,-1.601,1.599,2.699,4.2,3.109,2.936,12.327,9.757
267.0,6969968.712,-1.601,1.599,2.699,4.2,3.109,2.935,12.323,9.754
268.0,6999183.28,-1.601,1.599,2.699,4.2,3.11,2.934,12.329,9.733
269.0,7027975.805,-1.601,1.599,2.699,4.2,3.111,2.933,12.337,9.741
270.0,7056986.543,-1.601,1.599,2.699,4.2,3.113,2.93,12.343,9.729
271.0,7086048.543,-1.601,1.599,2.699,4.2,3.108,2.922,12.325,9.685
272.0,7114979.009,-1.601,1.599,2.699,4.2,3.103,2.923,12.317,9.693
273.0,7144515.787,-1.601,1.599,2.699,4.2,3.114,2.93,12.357,9.725
274.0,7173871.316,-1.601,1.599,2.699,4.2,3.106,2.923,12.321,9.677
275.0,7197620.803,-1.601,1.599,2.7,4.2,3.101,2.499,12.312,8.542
276.0,7220408.247,-1.601,1.599,2.7,4.2,2.639,2.511,10.55,8.562
277.0,7243370.94,-1.601,1.599,2.7,4.2,2.655,2.516,10.605,8.567
278.0,7265886.688,-1.619,1.599,2.699,4.2,2.647,2.498,10.577,8.504
279.0,7288785.05,-1.601,1.599,2.7,4.2,2.64,2.495,10.558,8.502
280.0,7311614.136,-1.601,1.602,2.7,4.2,2.638,2.514,10.542,8.564
281.0,7334450.027,-1.62,1.599,2.699,4.2,2.654,2.493,10.601,8.487
282.0,7357772.715,-1.601,1.599,2.7,4.2,2.637,2.497,10.551,8.491
283.0,7380729.317,-1.601,1.599,2.7,4.2,2.637,2.49,10.548,8.47
284.0,7403616.204,-1.601,1.599,2.7,4.2,2.632,2.495,10.524,8.484
285.0,7426282.349,-1.601,1.599,2.7,4.2,2.63,2.477,10.514,8.417
286.0,7449508.066,-1.601,1.599,2.7,4.2,2.625,2.484,10.506,8.443
287.0,7472869.246,-1.601,1.599,2.7,4.2,2.632,2.495,10.53,8.486
288.0,7496336.015,-1.601,1.599,2.7,4.2,2.643,2.49,10.569,8.468
289.0,7519301.419,-1.601,1.599,2.7,4.2,2.626,2.458,10.505,8.353
290.0,7542268.276,-1.601,1.599,2.7,4.2,2.598,2.472,10.404,8.399
291.0,7565101.039,-1.621,1.599,2.699,4.2,2.613,2.489,10.455,8.458
292.0,7588369.718,-1.601,1.599,2.7,4.2,2.637,2.479,10.546,8.424
293.0,7611512.628,-1.601,1.599,2.7,4.2,2.616,2.458,10.473,8.355
294.0,7634555.234,-1.603,1.599,2.7,4.2,2.6,2.475,10.409,8.416
295.0,7657612.986,-1.601,1.599,2.7,4.2,2.617,2.484,10.471,8.442
296.0,7680130.55,-1.601,1.599,2.7,4.2,2.615,2.473,10.458,8.396
297.0,7702817.005,-1.601,1.599,2.7,4.2,2.599,2.455,10.409,8.338
298.0,7725222.33,-1.617,1.599,2.699,4.2,2.583,2.462,10.342,8.363
299.0,7747752.468,-1.601,1.599,2.7,4.2,2.591,2.486,10.371,8.451
300.0,7770421.837,-1.617,1.599,2.699,4.2,2.62,2.498,10.471,8.505
301.0,7771185.141,1.599,1.599,3.447,3.751,0.339,0.0,1.248,0.0