File: Li-ion_Batteries/UL-PUR_N10-OV8_18650_NCA_23C_0-100_0.5-0.5C_h_cycle_data.csv
Cycle_Index,Test_Time (s),Min_Current (A),Max_Current (A),Min_Voltage (V),Max_Voltage (V),Charge_Capacity (Ah),Discharge_Capacity (Ah),Charge_Energy (Wh),Discharge_Energy (Wh)
1.0,18030.038,-1.133,1.134,2.7,4.2,0.819,3.302,3.389,11.674
2.0,43874.767,-1.133,1.134,2.7,4.2,3.308,3.301,12.659,11.669
3.0,69910.75,-1.133,1.134,2.7,4.2,3.307,3.299,12.655,11.652
4.0,95895.624,-1.133,1.134,2.7,4.2,3.306,3.3,12.657,11.659
5.0,121808.572,-1.133,1.134,2.7,4.2,3.307,3.3,12.652,11.662
6.0,147656.921,-1.133,1.134,2.7,4.2,3.307,3.3,12.654,11.666
7.0,173761.306,-1.133,1.134,2.7,4.2,3.307,3.3,12.654,11.66
8.0,199898.46,-1.133,1.134,2.7,4.2,3.306,3.3,12.654,11.66
9.0,220557.94,-1.133,1.134,2.7,4.2,2.928,2.925,11.068,10.183
10.0,241158.029,-1.133,1.134,2.7,4.2,2.922,2.92,11.042,10.169
11.0,267280.482,-1.133,1.134,2.7,4.2,3.304,3.297,12.646,11.645
12.0,293371.575,-1.133,1.134,2.7,4.2,3.303,3.295,12.642,11.635
13.0,319578.977,-1.133,1.134,2.7,4.2,3.303,3.297,12.645,11.639
14.0,345786.475,-1.133,1.134,2.7,4.2,3.302,3.295,12.642,11.626
15.0,372036.774,-1.133,1.134,2.7,4.2,3.301,3.293,12.641,11.616
16.0,398516.624,-1.133,1.134,2.7,4.2,3.298,3.29,12.63,11.593
17.0,424912.768,-1.133,1.134,2.7,4.2,3.298,3.29,12.633,11.598
18.0,451276.282,-1.133,1.134,2.7,4.2,3.297,3.29,12.629,11.598
19.0,477457.318,-1.133,1.134,2.7,4.2,3.298,3.293,12.631,11.62
20.0,503728.416,-1.133,1.134,2.7,4.2,3.299,3.292,12.631,11.609
21.0,529987.223,-1.133,1.134,2.7,4.2,3.298,3.291,12.628,11.608
22.0,550724.734,-1.133,1.134,2.7,4.2,2.913,2.91,11.011,10.115
23.0,576983.667,-1.133,1.135,2.7,4.2,3.298,3.29,12.626,11.601
24.0,603301.254,-1.133,1.134,2.7,4.2,3.297,3.29,12.625,11.599
25.0,629560.418,-1.133,1.134,2.7,4.2,3.296,3.29,12.622,11.6
26.0,655844.7,-1.133,1.134,2.7,4.201,3.297,3.29,12.622,11.599
27.0,682255.819,-1.133,1.134,2.7,4.2,3.295,3.286,12.617,11.576
28.0,708903.899,-1.133,1.134,2.7,4.2,3.291,3.284,12.611,11.56
29.0,735521.686,-1.133,1.134,2.7,4.2,3.291,3.284,12.61,11.561
30.0,762257.308,-1.133,1.134,2.7,4.2,3.29,3.284,12.608,11.554
31.0,788924.032,-1.133,1.134,2.7,4.2,3.29,3.281,12.609,11.54
32.0,815641.058,-1.133,1.134,2.7,4.2,3.288,3.28,12.603,11.537
33.0,842463.65,-1.133,1.134,2.7,4.2,3.286,3.28,12.598,11.529
34.0,869335.541,-1.133,1.134,2.7,4.2,3.286,3.278,12.6,11.526
35.0,896244.072,-1.133,1.134,2.7,4.2,3.285,3.278,12.596,11.518
36.0,923056.316,-1.133,1.134,2.7,4.2,3.284,3.276,12.592,11.513
37.0,950006.132,-1.133,1.134,2.7,4.2,3.283,3.276,12.588,11.512
38.0,976772.846,-1.133,1.134,2.7,4.2,3.282,3.276,12.587,11.511
39.0,1003694.556,-1.133,1.134,2.7,4.2,3.283,3.276,12.585,11.515
40.0,1030704.973,-1.133,1.134,2.7,4.2,3.282,3.274,12.585,11.502
41.0,1054407.012,-1.6,1.134,2.7,4.2,3.28,3.273,12.579,11.349
42.0,1075474.311,-1.6,1.601,2.7,4.2,3.279,3.273,12.694,11.345
43.0,1096698.735,-1.6,1.601,2.7,4.2,3.278,3.272,12.694,11.339
44.0,1117932.81,-1.6,1.601,2.7,4.2,3.276,3.27,12.686,11.329
45.0,1139329.879,-1.6,1.601,2.7,4.2,3.274,3.268,12.682,11.317
46.0,1160477.684,-1.6,1.601,2.7,4.2,3.274,3.262,12.681,11.289
47.0,1179357.047,-1.6,1.601,2.7,4.2,3.267,3.014,12.661,10.62
48.0,1197600.613,-1.6,1.601,2.7,4.2,3.02,3.019,11.764,10.63
49.0,1215891.041,-1.6,1.601,2.7,4.201,3.025,3.008,11.782,10.591
50.0,1234169.059,-1.6,1.601,2.7,4.2,3.015,3.016,11.747,10.609
51.0,1252493.477,-1.6,1.601,2.7,4.2,3.021,3.012,11.773,10.596
52.0,1270881.82,-1.6,1.601,2.7,4.2,3.019,3.011,11.767,10.594
53.0,1289295.356,-1.6,1.601,2.7,4.2,3.017,3.015,11.76,10.606
54.0,1307727.873,-1.6,1.601,2.7,4.2,3.02,3.013,11.773,10.59
55.0,1326078.651,-1.6,1.601,2.7,4.2,3.016,2.997,11.761,10.535
56.0,1344540.186,-1.6,1.601,2.7,4.2,3.005,3.007,11.718,10.567
57.0,1362927.987,-1.6,1.601,2.7,4.2,3.012,3.003,11.744,10.551
58.0,1381354.499,-1.6,1.601,2.7,4.2,3.01,2.997,11.736,10.536
59.0,1399827.845,-1.6,1.601,2.7,4.2,3.002,3.004,11.712,10.546
60.0,1418373.527,-1.6,1.601,2.7,4.2,3.01,3.0,11.744,10.534
61.0,1436854.308,-1.6,1.601,2.7,4.2,3.005,3.002,11.724,10.535
62.0,1455316.09,-1.6,1.601,2.7,4.2,3.007,2.997,11.73,10.524
63.0,1473780.929,-1.6,1.601,2.7,4.2,3.003,2.997,11.717,10.516
64.0,1492326.739,-1.6,1.601,2.7,4.2,3.002,2.987,11.712,10.48
65.0,1510834.548,-1.6,1.601,2.7,4.2,2.993,2.997,11.681,10.51
66.0,1529390.804,-1.6,1.601,2.7,4.2,3.003,2.991,11.718,10.49
67.0,1547917.366,-1.6,1.601,2.7,4.2,2.997,2.987,11.695,10.479
68.0,1566457.56,-1.6,1.601,2.7,4.2,2.992,2.978,11.681,10.443
69.0,1585027.476,-1.6,1.601,2.7,4.2,2.984,2.982,11.654,10.456
70.0,1603672.06,-1.6,1.601,2.7,4.2,2.988,2.99,11.668,10.478
71.0,1622320.959,-1.6,1.601,2.7,4.2,2.995,2.992,11.694,10.482
72.0,1640925.553,-1.6,1.601,2.7,4.2,2.996,2.98,11.697,10.443
73.0,1659483.699,-1.6,1.601,2.7,4.2,2.985,2.978,11.655,10.436
74.0,1678104.386,-1.6,1.601,2.7,4.2,2.984,2.983,11.654,10.446
75.0,1696759.077,-1.6,1.601,2.7,4.2,2.989,2.976,11.675,10.427
76.0,1715371.162,-1.6,1.601,2.7,4.2,2.982,2.978,11.648,10.428
77.0,1734047.008,-1.6,1.601,2.7,4.2,2.985,2.996,11.661,10.502
78.0,1752651.732,-1.6,1.601,2.7,4.201,3.01,3.001,11.747,10.513
79.0,1771268.933,-1.6,1.601,2.696,4.201,3.004,2.999,11.723,10.51
80.0,1789921.404,-1.6,1.601,2.7,4.201,3.004,2.997,11.722,10.503
81.0,1808561.134,-1.6,1.601,2.7,4.201,3.002,2.996,11.715,10.497
82.0,1827167.52,-1.6,1.601,2.7,4.201,3.002,2.995,11.714,10.494
83.0,1845844.485,-1.6,1.601,2.7,4.201,2.999,2.969,11.707,10.414
84.0,1864758.19,-1.6,1.601,2.7,4.2,2.962,2.91,11.592,10.146
85.0,1883718.925,-1.6,1.601,2.7,4.2,2.913,2.898,11.43,10.098
86.0,1902965.426,-1.6,1.601,2.7,4.2,2.906,2.93,11.409,10.223
87.0,1921781.415,-1.6,1.601,2.7,4.2,2.942,2.951,11.521,10.312
88.0,1940603.493,-1.6,1.601,2.7,4.2,2.957,2.955,11.571,10.329
89.0,1959407.656,-1.6,1.601,2.7,4.2,2.961,2.957,11.585,10.337
90.0,1978166.244,-1.6,1.601,2.7,4.2,2.96,2.942,11.579,10.275
91.0,1997037.283,-1.6,1.601,2.7,4.2,2.946,2.936,11.535,10.25
92.0,2015943.728,-1.6,1.601,2.7,4.2,2.942,2.938,11.525,10.262
93.0,2034846.708,-1.6,1.601,2.7,4.2,2.942,2.928,11.521,10.217
94.0,2053756.251,-1.6,1.601,2.7,4.2,2.932,2.921,11.491,10.188
95.0,2072788.055,-1.6,1.601,2.7,4.2,2.926,2.952,11.469,10.283
96.0,2091747.524,-1.6,1.601,2.7,4.2,2.96,2.936,11.589,10.247
97.0,2110666.642,-1.6,1.601,2.7,4.2,2.942,2.932,11.524,10.232
98.0,2121840.698,-1.6,1.601,2.7,4.2,2.353,2.346,9.05,8.028
99.0,2140685.555,-1.6,1.601,2.7,4.2,2.936,2.94,11.504,10.263
100.0,2159599.927,-1.6,1.601,2.7,4.2,2.945,2.936,11.532,10.249
101.0,2170779.379,-1.6,1.601,2.7,4.2,2.353,2.348,9.049,8.033
102.0,2189685.667,-1.6,1.601,2.7,4.2,2.939,2.933,11.515,10.235
103.0,2208627.687,-1.6,1.601,2.7,4.2,2.937,2.923,11.506,10.192
104.0,2227617.928,-1.6,1.601,2.7,4.2,2.929,2.927,11.479,10.208
105.0,2246682.621,-1.6,1.601,2.7,4.2,2.929,2.91,11.483,10.138
106.0,2265719.694,-1.6,1.601,2.7,4.2,2.917,2.911,11.441,10.144
107.0,2284724.228,-1.6,1.601,2.7,4.2,2.917,2.904,11.444,10.119
108.0,2303827.674,-1.6,1.601,2.7,4.2,2.91,2.899,11.424,10.1
109.0,2322905.2,-1.6,1.601,2.7,4.2,2.9,2.888,11.386,10.045
110.0,2341879.669,-1.6,1.601,2.7,4.2,2.895,2.899,11.369,10.09
111.0,2360943.002,-1.6,1.601,2.7,4.2,2.905,2.901,11.402,10.099
112.0,2380037.91,-1.6,1.601,2.7,4.2,2.905,2.896,11.404,10.078
113.0,2399184.045,-1.6,1.601,2.699,4.2,2.9,2.889,11.385,10.047
114.0,2418286.374,-1.6,1.601,2.699,4.2,2.896,2.898,11.374,10.088
115.0,2437399.135,-1.6,1.601,2.7,4.2,2.903,2.897,11.397,10.081
116.0,2456534.454,-1.6,1.601,2.7,4.2,2.902,2.896,11.392,10.075
117.0,2475737.936,-1.6,1.601,2.7,4.2,2.899,2.896,11.384,10.082
118.0,2494959.271,-1.6,1.601,2.7,4.2,2.903,2.884,11.4,10.031
119.0,2514045.739,-1.6,1.601,2.7,4.2,2.89,2.887,11.351,10.039
120.0,2533124.056,-1.6,1.601,2.7,4.2,2.896,2.894,11.369,10.073
121.0,2552202.892,-1.6,1.601,2.7,4.2,2.897,2.883,11.375,10.024
122.0,2571358.485,-1.6,1.602,2.7,4.2,2.887,2.876,11.343,9.994
123.0,2590554.319,-1.6,1.601,2.7,4.2,2.882,2.884,11.327,10.026
124.0,2609681.521,-1.6,1.601,2.7,4.2,2.889,2.873,11.358,9.979
125.0,2620455.186,-1.6,1.601,2.7,4.2,2.259,2.262,8.716,7.702
126.0,2639689.603,-1.6,1.601,2.7,4.2,2.882,2.873,11.333,9.977
127.0,2658975.797,-1.6,1.601,2.7,4.2,2.877,2.87,11.312,9.968
128.0,2678211.485,-1.6,1.601,2.7,4.2,2.875,2.865,11.304,9.944
129.0,2697417.101,-1.6,1.601,2.7,4.2,2.869,2.852,11.284,9.898
130.0,2716765.679,-1.6,1.601,2.7,4.2,2.858,2.854,11.249,9.901
131.0,2736000.315,-1.6,1.601,2.7,4.2,2.861,2.852,11.256,9.896
132.0,2755237.714,-1.6,1.601,2.7,4.2,2.857,2.853,11.244,9.897
133.0,2774476.312,-1.6,1.601,2.7,4.2,2.858,2.85,11.248,9.891
134.0,2793863.683,-1.6,1.601,2.7,4.2,2.855,2.847,11.239,9.874
135.0,2813151.997,-1.6,1.601,2.7,4.2,2.852,2.848,11.229,9.878
136.0,2832474.42,-1.6,1.601,2.7,4.2,2.854,2.847,11.235,9.876
137.0,2851851.388,-1.6,1.601,2.7,4.2,2.853,2.846,11.233,9.874
138.0,2871317.315,-1.6,1.601,2.7,4.2,2.85,2.852,11.227,9.888
139.0,2890532.211,-1.6,1.601,2.7,4.2,2.862,2.867,11.259,9.957
140.0,2909752.266,-1.6,1.601,2.7,4.2,2.873,2.85,11.294,9.899
141.0,2929070.669,-1.6,1.601,2.7,4.2,2.851,2.844,11.225,9.86
142.0,2948471.648,-1.6,1.601,2.7,4.2,2.85,2.838,11.219,9.842
143.0,2967881.077,-1.6,1.601,2.7,4.2,2.842,2.839,11.196,9.841
144.0,2987239.744,-1.6,1.601,2.7,4.2,2.844,2.836,11.203,9.83
145.0,3006533.007,-1.6,1.601,2.7,4.2,2.842,2.837,11.19,9.833
146.0,3017089.887,-1.6,1.601,2.7,4.2,2.212,2.213,8.544,7.515
147.0,3036516.579,-1.6,1.601,2.7,4.2,2.848,2.834,11.22,9.821
148.0,3056048.556,-1.6,1.601,2.7,4.2,2.839,2.83,11.187,9.805
149.0,3075443.516,-1.6,1.601,2.7,4.2,2.834,2.828,11.167,9.8
150.0,3094879.892,-1.6,1.601,2.7,4.2,2.834,2.828,11.157,9.798
151.0,3114279.303,-1.6,1.601,2.7,4.2,2.834,2.826,11.168,9.79
152.0,3133702.203,-1.6,1.601,2.7,4.2,2.829,2.82,11.151,9.763
153.0,3153101.246,-1.6,1.601,2.7,4.2,2.827,2.824,11.143,9.782
154.0,3172489.271,-1.6,1.601,2.7,4.2,2.828,2.823,11.147,9.776
155.0,3191869.906,-1.6,1.601,2.7,4.2,2.829,2.824,11.151,9.783
156.0,3211231.953,-1.6,1.601,2.7,4.2,2.831,2.824,11.159,9.788
157.0,3230572.185,-1.6,1.601,2.7,4.2,2.828,2.82,11.147,9.767
158.0,3249979.226,-1.6,1.601,2.7,4.2,2.827,2.826,11.143,9.793
159.0,3269348.966,-1.6,1.601,2.7,4.2,2.832,2.828,11.16,9.799
160.0,3288617.118,-1.6,1.601,2.7,4.2,2.833,2.823,11.161,9.779
161.0,3307978.743,-1.6,1.601,2.7,4.2,2.826,2.817,11.137,9.751
162.0,3327384.668,-1.6,1.601,2.7,4.2,2.823,2.816,11.126,9.751
163.0,3346791.261,-1.6,1.601,2.7,4.2,2.822,2.815,11.124,9.747
164.0,3366163.555,-1.6,1.601,2.7,4.2,2.82,2.813,11.117,9.738
165.0,3385557.58,-1.6,1.601,2.7,4.2,2.819,2.809,11.115,9.721
166.0,3404959.757,-1.6,1.601,2.7,4.2,2.813,2.809,11.094,9.718
167.0,3424344.888,-1.6,1.601,2.7,4.2,2.815,2.81,11.102,9.724
168.0,3443780.02,-1.6,1.601,2.7,4.2,2.814,2.81,11.1,9.722
169.0,3463199.452,-1.6,1.601,2.7,4.2,2.816,2.804,11.104,9.702
170.0,3482612.432,-1.6,1.601,2.696,4.2,2.809,2.8,11.081,9.684
171.0,3502029.007,-1.6,1.601,2.7,4.2,2.805,2.802,11.07,9.696
172.0,3521456.225,-1.6,1.601,2.7,4.2,2.809,2.8,11.08,9.684
173.0,3540860.057,-1.6,1.601,2.7,4.2,2.806,2.801,11.07,9.69
174.0,3560285.211,-1.6,1.601,2.7,4.2,2.805,2.794,11.067,9.664
175.0,3579777.9,-1.6,1.601,2.7,4.2,2.8,2.795,11.053,9.668
176.0,3599206.775,-1.6,1.601,2.7,4.2,2.802,2.795,11.059,9.666
177.0,3618757.697,-1.6,1.601,2.7,4.2,2.801,2.795,11.053,9.671
178.0,3638251.928,-1.6,1.601,2.7,4.2,2.8,2.795,11.051,9.665
179.0,3657661.201,-1.6,1.601,2.7,4.2,2.8,2.789,11.05,9.641
180.0,3667933.816,-1.6,1.601,2.7,4.2,2.145,2.154,8.302,7.293
181.0,3687495.521,-1.6,1.601,2.7,4.2,2.808,2.788,11.084,9.651
182.0,3706942.046,-1.6,1.601,2.7,4.2,2.792,2.787,11.026,9.634
183.0,3726458.395,-1.6,1.601,2.7,4.2,2.794,2.787,11.032,9.633
184.0,3745856.786,-1.6,1.601,2.7,4.2,2.79,2.783,11.016,9.616
185.0,3765272.054,-1.6,1.601,2.7,4.2,2.789,2.784,11.014,9.623
186.0,3784723.518,-1.6,1.601,2.7,4.2,2.79,2.781,11.015,9.611
187.0,3804235.948,-1.6,1.601,2.7,4.2,2.788,2.781,11.009,9.614
188.0,3823686.348,-1.6,1.601,2.7,4.2,2.786,2.781,11.002,9.611
189.0,3843129.698,-1.6,1.601,2.7,4.2,2.785,2.772,10.999,9.574
190.0,3862643.533,-1.6,1.601,2.7,4.2,2.779,2.779,10.98,9.601
191.0,3882183.62,-1.6,1.601,2.7,4.2,2.784,2.782,10.996,9.612
192.0,3901617.204,-1.6,1.601,2.7,4.2,2.787,2.773,11.004,9.581
193.0,3921053.309,-1.6,1.601,2.7,4.2,2.78,2.772,10.981,9.58
194.0,3940564.595,-1.6,1.601,2.7,4.2,2.776,2.773,10.968,9.578
195.0,3959954.389,-1.6,1.601,2.7,4.2,2.78,2.77,10.977,9.57
196.0,3979443.644,-1.6,1.601,2.7,4.2,2.777,2.775,10.972,9.589
197.0,3998880.916,-1.6,1.601,2.7,4.2,2.779,2.77,10.975,9.571
198.0,4018294.623,-1.6,1.601,2.7,4.2,2.775,2.764,10.966,9.544
199.0,4037769.996,-1.6,1.601,2.7,4.2,2.771,2.763,10.952,9.544
200.0,4057217.375,-1.6,1.601,2.7,4.2,2.767,2.762,10.939,9.537
201.0,4076608.404,-1.6,1.601,2.7,4.2,2.77,2.766,10.945,9.554
202.0,4079897.764,1.6,1.601,3.393,3.972,1.462,0.0,5.529,0.0