File: Li-ion_Batteries/UL-PUR_R20-EX2_18650_NCA_23C_2.5-96.5_0.5-0.5C_b_cycle_data.csv
Cycle_Index,Test_Time (s),Min_Current (A),Max_Current (A),Min_Voltage (V),Max_Voltage (V),Charge_Capacity (Ah),Discharge_Capacity (Ah),Charge_Energy (Wh),Discharge_Energy (Wh)
1.0,9140.667,-1.6,1.6,2.9,4.246,0.002,3.306,0.003,11.662
2.0,26449.99,-1.6,1.601,2.9,4.0,2.755,2.745,10.392,9.497
3.0,43673.231,-1.6,1.601,2.9,4.0,2.743,2.743,10.343,9.486
4.0,60863.353,-1.6,1.601,2.9,4.0,2.743,2.741,10.342,9.481
5.0,78018.773,-1.6,1.601,2.9,4.0,2.743,2.741,10.338,9.481
6.0,95180.368,-1.6,1.601,2.9,4.0,2.743,2.742,10.337,9.481
7.0,112334.364,-1.6,1.601,2.9,4.0,2.743,2.74,10.337,9.478
8.0,129505.732,-1.6,1.601,2.9,4.0,2.742,2.739,10.334,9.47
9.0,146673.425,-1.6,1.601,2.9,4.0,2.741,2.739,10.332,9.47
10.0,158412.603,-1.6,1.601,2.9,4.0,2.258,2.258,8.398,7.664
11.0,175581.9,-1.6,1.601,2.9,4.0,2.739,2.737,10.321,9.463
12.0,192703.506,-1.6,1.601,2.9,4.0,2.739,2.737,10.324,9.464
13.0,209857.092,-1.6,1.601,2.9,4.0,2.74,2.736,10.324,9.458
14.0,226993.231,-1.6,1.601,2.9,4.0,2.738,2.735,10.318,9.454
15.0,244122.362,-1.6,1.601,2.9,4.0,2.737,2.734,10.315,9.45
16.0,261263.723,-1.6,1.601,2.9,4.0,2.736,2.733,10.312,9.445
17.0,278395.481,-1.6,1.601,2.9,4.0,2.735,2.733,10.309,9.446
18.0,295559.138,-1.6,1.601,2.9,4.0,2.735,2.731,10.307,9.437
19.0,312739.514,-1.6,1.601,2.9,4.0,2.733,2.73,10.303,9.432
20.0,329924.443,-1.6,1.601,2.9,4.0,2.733,2.73,10.301,9.431
21.0,347078.795,-1.6,1.601,2.9,4.0,2.732,2.73,10.299,9.43
22.0,364276.073,-1.6,1.601,2.9,4.0,2.732,2.728,10.297,9.424
23.0,381449.32,-1.6,1.601,2.9,4.0,2.73,2.728,10.294,9.423
24.0,398624.42,-1.6,1.601,2.9,4.0,2.731,2.728,10.295,9.422
25.0,415788.042,-1.6,1.601,2.9,4.0,2.73,2.727,10.291,9.418
26.0,433019.977,-1.6,1.601,2.9,4.0,2.73,2.726,10.29,9.414
27.0,450266.205,-1.6,1.601,2.9,4.0,2.728,2.724,10.285,9.403
28.0,467552.249,-1.6,1.601,2.9,4.0,2.727,2.724,10.285,9.403
29.0,484811.413,-1.6,1.601,2.9,4.0,2.726,2.724,10.283,9.403
30.0,502048.603,-1.6,1.601,2.9,4.0,2.727,2.724,10.282,9.402
31.0,519235.082,-1.6,1.601,2.9,4.0,2.728,2.726,10.284,9.412
32.0,530954.238,-1.6,1.601,2.9,4.0,2.235,2.234,8.311,7.564
33.0,548180.214,-1.6,1.601,2.9,4.0,2.726,2.723,10.276,9.4
34.0,565375.414,-1.6,1.601,2.9,4.0,2.726,2.723,10.277,9.398
35.0,582574.882,-1.6,1.601,2.9,4.0,2.725,2.722,10.275,9.396
36.0,599772.515,-1.6,1.601,2.9,4.0,2.725,2.722,10.276,9.396
37.0,616981.122,-1.6,1.601,2.9,4.0,2.725,2.722,10.273,9.393
38.0,634238.431,-1.6,1.601,2.9,4.0,2.724,2.72,10.27,9.382
39.0,651543.33,-1.6,1.601,2.9,4.0,2.721,2.719,10.266,9.376
40.0,668812.458,-1.6,1.601,2.9,4.0,2.722,2.719,10.266,9.379
41.0,686081.09,-1.6,1.601,2.9,4.0,2.721,2.719,10.264,9.378
42.0,703327.886,-1.6,1.601,2.9,4.0,2.721,2.718,10.263,9.378
43.0,720628.276,-1.6,1.601,2.9,4.0,2.721,2.717,10.26,9.369
44.0,737967.682,-1.6,1.601,2.9,4.0,2.719,2.716,10.258,9.363
45.0,755253.372,-1.6,1.601,2.9,4.0,2.718,2.716,10.257,9.365
46.0,772514.786,-1.6,1.601,2.9,4.0,2.719,2.716,10.255,9.365
47.0,789791.357,-1.6,1.601,2.9,4.0,2.718,2.715,10.253,9.362
48.0,807133.899,-1.6,1.601,2.9,4.0,2.718,2.714,10.251,9.355
49.0,824481.68,-1.6,1.601,2.9,4.0,2.717,2.714,10.25,9.353
50.0,841861.13,-1.6,1.601,2.9,4.0,2.716,2.713,10.248,9.347
51.0,859291.856,-1.6,1.601,2.9,4.0,2.715,2.712,10.245,9.34
52.0,876627.087,-1.6,1.601,2.9,4.0,2.715,2.713,10.247,9.351
53.0,894036.574,-1.6,1.601,2.9,4.0,2.715,2.711,10.244,9.341
54.0,911437.951,-1.6,1.601,2.9,4.0,2.713,2.711,10.242,9.341
55.0,928855.041,-1.6,1.601,2.9,4.0,2.714,2.71,10.241,9.335
56.0,946295.222,-1.6,1.601,2.9,4.0,2.713,2.709,10.239,9.331
57.0,963741.943,-1.6,1.601,2.9,4.0,2.712,2.709,10.237,9.331
58.0,981305.415,-1.6,1.601,2.9,4.0,2.711,2.707,10.234,9.313
59.0,998875.354,-1.6,1.601,2.9,4.0,2.709,2.707,10.232,9.314
60.0,1016422.133,-1.6,1.601,2.9,4.0,2.71,2.707,10.234,9.319
61.0,1033922.228,-1.6,1.601,2.9,4.0,2.71,2.707,10.232,9.317
62.0,1051422.801,-1.6,1.601,2.9,4.0,2.71,2.707,10.231,9.318
63.0,1069025.524,-1.6,1.601,2.9,4.0,2.709,2.705,10.229,9.304
64.0,1086598.157,-1.6,1.601,2.9,4.0,2.707,2.705,10.226,9.307
65.0,1104000.288,-1.6,1.601,2.9,4.0,2.709,2.707,10.229,9.323
66.0,1121451.049,-1.6,1.601,2.9,4.0,2.71,2.706,10.227,9.318
67.0,1138988.212,-1.6,1.601,2.9,4.0,2.708,2.705,10.226,9.308
68.0,1156517.234,-1.6,1.601,2.9,4.0,2.708,2.705,10.224,9.308
69.0,1174026.013,-1.6,1.601,2.9,4.0,2.707,2.704,10.222,9.306
70.0,1191571.33,-1.6,1.601,2.9,4.0,2.707,2.704,10.221,9.304
71.0,1209150.681,-1.6,1.601,2.9,4.0,2.706,2.703,10.221,9.299
72.0,1226685.774,-1.6,1.601,2.9,4.0,2.706,2.703,10.218,9.298
73.0,1244175.053,-1.6,1.601,2.9,4.0,2.706,2.703,10.217,9.305
74.0,1261648.338,-1.6,1.601,2.9,4.0,2.706,2.703,10.218,9.305
75.0,1279174.059,-1.6,1.601,2.9,4.0,2.706,2.702,10.215,9.295
76.0,1296800.178,-1.6,1.601,2.9,4.0,2.704,2.701,10.214,9.289
77.0,1314433.136,-1.6,1.601,2.9,4.0,2.704,2.7,10.212,9.286
78.0,1332115.354,-1.6,1.601,2.9,4.0,2.703,2.699,10.21,9.276
79.0,1349756.275,-1.6,1.601,2.9,4.0,2.702,2.699,10.209,9.28
80.0,1367456.516,-1.6,1.601,2.9,4.0,2.702,2.698,10.207,9.273
81.0,1385131.536,-1.6,1.601,2.9,4.0,2.701,2.698,10.205,9.271
82.0,1402820.935,-1.6,1.601,2.9,4.0,2.701,2.698,10.206,9.276
83.0,1420480.572,-1.6,1.601,2.9,4.0,2.701,2.698,10.206,9.273
84.0,1438182.208,-1.6,1.601,2.9,4.0,2.7,2.697,10.202,9.267
85.0,1455858.727,-1.6,1.601,2.9,4.0,2.7,2.697,10.201,9.266
86.0,1473562.291,-1.6,1.601,2.9,4.0,2.699,2.696,10.199,9.265
87.0,1491106.17,-1.6,1.601,2.9,4.0,2.7,2.698,10.198,9.276
88.0,1508609.351,-1.6,1.601,2.9,4.001,2.701,2.698,10.2,9.28
89.0,1526182.016,-1.6,1.601,2.9,4.0,2.7,2.697,10.198,9.271
90.0,1543817.232,-1.6,1.601,2.9,4.0,2.699,2.696,10.197,9.268
91.0,1561473.763,-1.6,1.601,2.9,4.0,2.698,2.695,10.194,9.262
92.0,1579089.244,-1.6,1.601,2.9,4.0,2.698,2.695,10.195,9.266
93.0,1596715.809,-1.6,1.601,2.9,4.0,2.698,2.695,10.193,9.261
94.0,1614394.444,-1.6,1.601,2.9,4.0,2.697,2.694,10.19,9.255
95.0,1632137.369,-1.6,1.601,2.9,4.0,2.696,2.693,10.189,9.251
96.0,1649905.715,-1.6,1.601,2.9,4.0,2.696,2.693,10.189,9.249
97.0,1667609.864,-1.6,1.601,2.9,4.0,2.695,2.691,10.186,9.242
98.0,1685429.866,-1.6,1.601,2.9,4.0,2.694,2.69,10.184,9.237
99.0,1703262.716,-1.6,1.601,2.9,4.0,2.693,2.69,10.184,9.235
100.0,1721164.985,-1.6,1.601,2.9,4.0,2.693,2.69,10.183,9.234
101.0,1738988.535,-1.6,1.601,2.9,4.0,2.692,2.689,10.18,9.231
102.0,1756945.162,-1.6,1.601,2.9,4.0,2.693,2.689,10.181,9.228
103.0,1774859.085,-1.6,1.601,2.9,4.0,2.691,2.687,10.175,9.221
104.0,1792676.74,-1.6,1.601,2.9,4.0,2.691,2.688,10.178,9.224
105.0,1810513.125,-1.6,1.601,2.9,4.001,2.692,2.688,10.178,9.225
106.0,1828486.334,-1.6,1.601,2.9,4.0,2.69,2.687,10.174,9.217
107.0,1846393.789,-1.6,1.601,2.9,4.0,2.689,2.686,10.171,9.216
108.0,1864286.557,-1.6,1.601,2.9,4.0,2.689,2.686,10.172,9.216
109.0,1882188.665,-1.6,1.601,2.9,4.0,2.689,2.686,10.17,9.214
110.0,1900054.882,-1.6,1.601,2.9,4.001,2.688,2.685,10.168,9.212
111.0,1917924.652,-1.6,1.601,2.9,4.0,2.688,2.684,10.165,9.204
112.0,1935887.403,-1.6,1.601,2.9,4.0,2.687,2.683,10.165,9.2
113.0,1954053.579,-1.6,1.601,2.9,4.0,2.685,2.68,10.159,9.177
114.0,1972118.74,-1.6,1.601,2.9,4.0,2.684,2.682,10.157,9.192
115.0,1990047.797,-1.6,1.601,2.9,4.0,2.685,2.684,10.162,9.209
116.0,2007793.766,-1.6,1.601,2.9,4.001,2.688,2.687,10.165,9.225
117.0,2025572.706,-1.6,1.601,2.9,4.001,2.689,2.685,10.162,9.219
118.0,2043298.04,-1.6,1.601,2.9,4.001,2.688,2.685,10.16,9.221
119.0,2061160.007,-1.6,1.601,2.9,4.001,2.688,2.684,10.163,9.212
120.0,2078965.462,-1.6,1.601,2.9,4.001,2.686,2.684,10.159,9.209
121.0,2096668.965,-1.6,1.601,2.9,4.001,2.688,2.686,10.161,9.225
122.0,2114403.262,-1.6,1.601,2.9,4.001,2.688,2.684,10.159,9.216
123.0,2132130.972,-1.6,1.601,2.9,4.001,2.687,2.684,10.157,9.217
124.0,2149877.264,-1.6,1.601,2.9,4.001,2.687,2.684,10.156,9.213
125.0,2167627.264,-1.6,1.601,2.9,4.001,2.687,2.684,10.156,9.214
126.0,2185641.278,-1.6,1.601,2.9,4.001,2.684,2.678,10.15,9.178
127.0,2203732.266,-1.6,1.601,2.9,4.0,2.681,2.677,10.146,9.173
128.0,2221882.49,-1.6,1.601,2.9,4.0,2.68,2.676,10.143,9.17
129.0,2240032.605,-1.6,1.601,2.9,4.0,2.679,2.676,10.142,9.166
130.0,2258245.773,-1.6,1.601,2.9,4.0,2.679,2.674,10.142,9.159
131.0,2276398.518,-1.6,1.601,2.9,4.0,2.677,2.674,10.137,9.156
132.0,2294585.222,-1.6,1.601,2.9,4.0,2.677,2.673,10.135,9.15
133.0,2312792.505,-1.6,1.601,2.9,4.0,2.676,2.673,10.134,9.151
134.0,2330944.91,-1.6,1.601,2.9,4.0,2.676,2.673,10.134,9.154
135.0,2349191.048,-1.6,1.601,2.9,4.0,2.675,2.681,10.13,9.183
136.0,2367329.248,-1.6,1.601,2.9,4.0,2.675,2.672,10.132,9.15
137.0,2385535.347,-1.6,1.601,2.9,4.0,2.674,2.671,10.127,9.142
138.0,2403830.988,-1.6,1.601,2.9,4.0,2.674,2.669,10.126,9.134
139.0,2422200.57,-1.6,1.601,2.9,4.0,2.672,2.668,10.123,9.128
140.0,2440477.397,-1.6,1.601,2.9,4.0,2.672,2.67,10.123,9.138
141.0,2458704.244,-1.6,1.601,2.9,4.0,2.673,2.671,10.125,9.141
142.0,2476793.105,-1.6,1.601,2.9,4.001,2.673,2.671,10.124,9.152
143.0,2494904.317,-1.6,1.601,2.9,4.001,2.674,2.671,10.124,9.15
144.0,2513025.394,-1.6,1.601,2.9,4.001,2.673,2.67,10.122,9.141
145.0,2531213.242,-1.6,1.601,2.9,4.0,2.673,2.669,10.121,9.136
146.0,2549362.915,-1.6,1.601,2.9,4.001,2.672,2.668,10.118,9.134
147.0,2567490.612,-1.6,1.601,2.9,4.001,2.671,2.668,10.115,9.132
148.0,2585622.74,-1.6,1.601,2.9,4.001,2.671,2.668,10.114,9.135
149.0,2603803.779,-1.6,1.601,2.9,4.001,2.671,2.668,10.115,9.132
150.0,2622068.656,-1.6,1.601,2.9,4.001,2.67,2.665,10.112,9.123
151.0,2640394.824,-1.6,1.601,2.9,4.001,2.668,2.665,10.107,9.12
152.0,2658620.72,-1.6,1.601,2.9,4.001,2.668,2.665,10.107,9.122
153.0,2676907.077,-1.6,1.601,2.9,4.001,2.668,2.663,10.105,9.113
154.0,2695264.594,-1.6,1.601,2.9,4.001,2.666,2.663,10.102,9.109
155.0,2713675.567,-1.6,1.601,2.9,4.0,2.666,2.663,10.103,9.108
156.0,2725494.085,-1.6,1.601,2.9,4.0,2.094,2.093,7.815,7.0
157.0,2743993.302,-1.6,1.601,2.9,4.0,2.662,2.659,10.1,9.084
158.0,2762521.971,-1.6,1.601,2.9,4.0,2.663,2.658,10.096,9.086
159.0,2780998.758,-1.6,1.601,2.9,4.0,2.662,2.658,10.092,9.084
160.0,2799412.02,-1.6,1.601,2.9,4.0,2.662,2.66,10.093,9.092
161.0,2811102.025,-1.6,1.601,2.9,4.0,2.095,2.097,7.82,7.018
162.0,2829374.979,-1.6,1.601,2.9,4.001,2.665,2.661,10.097,9.105
163.0,2847666.446,-1.6,1.601,2.9,4.001,2.664,2.659,10.093,9.095
164.0,2865953.334,-1.6,1.601,2.9,4.001,2.663,2.66,10.09,9.098
165.0,2884239.041,-1.6,1.601,2.9,4.001,2.663,2.659,10.089,9.098
166.0,2902513.433,-1.6,1.601,2.9,4.001,2.662,2.659,10.087,9.096
167.0,2920813.277,-1.6,1.601,2.9,4.0,2.662,2.659,10.086,9.094
168.0,2939098.292,-1.6,1.601,2.9,4.001,2.662,2.658,10.086,9.093
169.0,2957377.091,-1.6,1.601,2.9,4.0,2.661,2.658,10.084,9.093
170.0,2969026.186,-1.6,1.601,2.9,4.0,2.093,2.095,7.812,7.01
171.0,2987225.421,-1.6,1.601,2.9,4.001,2.662,2.659,10.089,9.102
172.0,3005476.387,-1.6,1.601,2.9,4.001,2.662,2.657,10.083,9.09
173.0,3023864.728,-1.6,1.601,2.9,4.001,2.66,2.656,10.08,9.077
174.0,3042312.527,-1.6,1.601,2.9,4.001,2.656,2.652,10.07,9.061
175.0,3060923.381,-1.6,1.601,2.9,4.001,2.657,2.652,10.075,9.062
176.0,3079484.844,-1.6,1.601,2.9,4.001,2.655,2.652,10.068,9.061
177.0,3091106.108,-1.6,1.601,2.9,4.0,2.077,2.073,7.757,6.924
178.0,3109678.488,-1.6,1.601,2.9,4.001,2.655,2.649,10.071,9.045
179.0,3128166.903,-1.6,1.601,2.9,4.001,2.653,2.65,10.065,9.045
180.0,3146709.502,-1.6,1.601,2.9,4.001,2.651,2.648,10.06,9.041
181.0,3165405.276,-1.6,1.601,2.9,4.001,2.652,2.648,10.062,9.037
182.0,3184101.972,-1.6,1.601,2.9,4.0,2.65,2.647,10.056,9.035
183.0,3202770.503,-1.6,1.601,2.9,4.001,2.65,2.646,10.056,9.033
184.0,3221416.586,-1.6,1.601,2.9,4.0,2.649,2.646,10.052,9.028
185.0,3239979.476,-1.6,1.601,2.9,4.0,2.649,2.645,10.052,9.026
186.0,3258514.001,-1.6,1.601,2.9,4.0,2.648,2.644,10.05,9.023
187.0,3277215.123,-1.6,1.601,2.9,4.001,2.648,2.644,10.049,9.022
188.0,3295819.466,-1.6,1.601,2.9,4.001,2.647,2.643,10.047,9.017
189.0,3314467.572,-1.6,1.601,2.9,4.001,2.646,2.643,10.046,9.022
190.0,3332965.651,-1.6,1.601,2.9,4.001,2.647,2.644,10.041,9.029
191.0,3351580.122,-1.6,1.601,2.9,4.001,2.648,2.645,10.046,9.03
192.0,3370263.34,-1.6,1.601,2.9,4.0,2.648,2.643,10.046,9.021
193.0,3388898.656,-1.6,1.601,2.9,4.0,2.646,2.643,10.041,9.02
194.0,3407398.49,-1.6,1.601,2.9,4.001,2.646,2.643,10.041,9.019
195.0,3425945.251,-1.6,1.601,2.9,4.0,2.645,2.641,10.039,9.008
196.0,3444583.973,-1.6,1.601,2.9,4.001,2.644,2.642,10.035,9.017
197.0,3463261.231,-1.6,1.601,2.9,4.001,2.645,2.641,10.037,9.01
198.0,3482021.708,-1.6,1.601,2.9,4.001,2.644,2.64,10.034,9.004
199.0,3500726.472,-1.6,1.601,2.9,4.001,2.643,2.639,10.031,9.0
200.0,3516832.021,-1.6,1.601,2.9,4.001,2.641,2.374,10.027,8.232
201.0,3525609.37,-1.6,1.601,2.9,4.0,1.809,1.824,6.795,6.19
202.0,3541145.679,-1.6,1.601,2.9,4.001,2.397,2.388,9.143,8.275
203.0,3556604.517,-1.6,1.601,2.9,4.001,2.393,2.388,9.125,8.271
204.0,3572020.053,-1.6,1.601,2.9,4.001,2.392,2.385,9.123,8.262
205.0,3587511.333,-1.6,1.601,2.898,4.001,2.39,2.387,9.115,8.271
206.0,3603000.615,-1.6,1.601,2.9,4.001,2.392,2.38,9.124,8.251
207.0,3618437.782,-1.6,1.601,2.9,4.001,2.384,2.385,9.095,8.267
208.0,3627251.782,-1.6,1.601,2.9,4.0,1.818,1.832,6.826,6.215
209.0,3642778.778,-1.6,1.601,2.9,4.001,2.404,2.379,9.166,8.244
210.0,3658195.589,-1.6,1.601,2.9,4.001,2.383,2.373,9.09,8.225
211.0,3673611.699,-1.6,1.601,2.9,4.001,2.377,2.386,9.071,8.264
212.0,3689075.439,-1.6,1.601,2.9,4.001,2.391,2.377,9.12,8.236
213.0,3704479.649,-1.6,1.601,2.9,4.001,2.38,2.39,9.08,8.278
214.0,3719951.381,-1.6,1.601,2.9,4.001,2.395,2.388,9.132,8.273
215.0,3735399.403,-1.6,1.601,2.9,4.0,2.391,2.382,9.119,8.252
216.0,3750860.997,-1.6,1.601,2.9,4.001,2.387,2.379,9.104,8.242
217.0,3766294.007,-1.6,1.601,2.9,4.001,2.383,2.385,9.091,8.261
218.0,3781680.881,-1.6,1.601,2.9,4.0,2.389,2.378,9.111,8.24
219.0,3797100.209,-1.6,1.601,2.9,4.001,2.383,2.386,9.089,8.266
220.0,3812513.25,-1.6,1.601,2.9,4.001,2.39,2.383,9.114,8.257
221.0,3827917.911,-1.6,1.601,2.9,4.001,2.387,2.377,9.103,8.234
222.0,3843348.281,-1.6,1.601,2.9,4.0,2.381,2.381,9.084,8.249
223.0,3858767.909,-1.6,1.601,2.9,4.0,2.385,2.381,9.099,8.247
224.0,3874140.34,-1.6,1.601,2.9,4.001,2.385,2.377,9.096,8.236
225.0,3889544.06,-1.6,1.601,2.793,4.0,2.382,2.379,9.086,8.241
226.0,3904933.557,-1.6,1.601,2.9,4.001,2.382,2.37,9.089,8.215
227.0,3920381.294,-1.6,1.601,2.9,4.0,2.375,2.38,9.064,8.244
228.0,3935778.005,-1.6,1.601,2.9,4.0,2.383,2.378,9.092,8.236
229.0,3951174.576,-1.6,1.601,2.9,4.001,2.382,2.377,9.086,8.237
230.0,3966602.379,-1.6,1.601,2.9,4.0,2.382,2.375,9.087,8.233
231.0,3981988.355,-1.6,1.601,2.9,4.001,2.379,2.381,9.075,8.246
232.0,3997340.832,-1.6,1.601,2.9,4.001,2.385,2.368,9.097,8.207
233.0,4006051.785,-1.6,1.601,2.9,4.0,1.8,1.804,6.763,6.12
234.0,4021459.694,-1.6,1.601,2.9,4.0,2.377,2.369,9.073,8.209
235.0,4036829.101,-1.6,1.601,2.899,4.001,2.374,2.376,9.061,8.23
236.0,4052183.716,-1.6,1.601,2.9,4.001,2.38,2.369,9.082,8.21
237.0,4067598.882,-1.6,1.601,2.9,4.0,2.374,2.381,9.059,8.25
238.0,4082955.292,-1.6,1.601,2.9,4.001,2.387,2.389,9.1,8.284
239.0,4098090.388,-1.639,1.601,2.894,4.001,2.336,2.389,8.894,8.281
240.0,4113439.19,-1.6,1.601,2.9,4.001,2.394,2.393,9.124,8.298
241.0,4128799.48,-1.6,1.601,2.9,4.001,2.398,2.392,9.137,8.293
242.0,4144157.831,-1.639,1.601,2.786,4.001,2.396,2.392,9.131,8.294
243.0,4159528.287,-1.6,1.601,2.723,4.001,2.396,2.397,9.133,8.311
244.0,4174862.503,-1.6,1.601,2.884,4.001,2.401,2.385,9.147,8.271
245.0,4190134.748,-1.6,1.601,2.9,4.001,2.389,2.359,9.11,8.183
246.0,4205541.346,-1.6,1.601,2.9,4.0,2.356,2.318,9.003,8.019
247.0,4220935.875,-1.6,1.601,2.9,4.0,2.322,2.31,8.885,7.985
248.0,4236338.501,-1.6,1.601,2.9,4.0,2.313,2.303,8.856,7.959
249.0,4251690.822,-1.6,1.601,2.9,4.0,2.311,2.348,8.844,8.125
250.0,4267061.911,-1.6,1.601,2.9,4.0,2.353,2.355,8.988,8.156
251.0,4282433.96,-1.6,1.601,2.9,4.0,2.36,2.358,9.011,8.167
252.0,4297780.434,-1.6,1.601,2.9,4.0,2.362,2.36,9.019,8.175
253.0,4313115.684,-1.6,1.601,2.9,4.0,2.365,2.352,9.027,8.148
254.0,4328479.901,-1.6,1.601,2.9,4.0,2.355,2.344,8.995,8.114
255.0,4343845.082,-1.6,1.601,2.9,4.0,2.347,2.341,8.97,8.104
256.0,4359178.884,-1.6,1.601,2.9,4.0,2.346,2.344,8.964,8.115
257.0,4374548.987,-1.6,1.601,2.9,4.0,2.347,2.334,8.968,8.08
258.0,4389923.264,-1.6,1.601,2.9,4.0,2.338,2.331,8.939,8.067
259.0,4405297.934,-1.6,1.601,2.9,4.0,2.335,2.327,8.927,8.052
260.0,4420813.367,-1.6,1.601,2.9,4.001,2.334,2.342,8.927,8.107
261.0,4436177.108,-1.6,1.601,2.9,4.0,2.344,2.349,8.957,8.132
262.0,4451523.291,-1.6,1.601,2.9,4.0,2.353,2.342,8.986,8.109
263.0,4466891.067,-1.6,1.601,2.9,4.0,2.346,2.345,8.964,8.114
264.0,4482219.138,-1.6,1.601,2.9,4.0,2.35,2.35,8.976,8.137
265.0,4497578.14,-1.6,1.601,2.9,4.0,2.353,2.351,8.988,8.141
266.0,4512894.09,-1.6,1.601,2.9,4.001,2.355,2.346,8.992,8.12
267.0,4528238.264,-1.6,1.601,2.9,4.0,2.35,2.351,8.977,8.143
268.0,4543591.974,-1.6,1.601,2.9,4.0,2.355,2.347,8.993,8.125
269.0,4558969.114,-1.6,1.601,2.9,4.0,2.351,2.342,8.979,8.108
270.0,4574286.705,-1.6,1.601,2.9,4.0,2.347,2.336,8.966,8.088
271.0,4589689.39,-1.6,1.601,2.9,4.0,2.339,2.328,8.944,8.056
272.0,4605075.177,-1.6,1.601,2.9,4.0,2.333,2.332,8.92,8.07
273.0,4620478.772,-1.6,1.601,2.9,4.0,2.336,2.332,8.932,8.071
274.0,4635875.78,-1.6,1.601,2.9,4.0,2.336,2.325,8.929,8.041
275.0,4651178.659,-1.6,1.601,2.9,4.0,2.329,2.316,8.902,8.011
276.0,4666590.011,-1.6,1.601,2.9,4.0,2.32,2.313,8.877,7.998
277.0,4681919.424,-1.6,1.601,2.9,4.0,2.318,2.324,8.871,8.04
278.0,4697300.77,-1.6,1.601,2.9,4.0,2.328,2.328,8.905,8.055
279.0,4712675.646,-1.6,1.601,2.9,4.0,2.332,2.324,8.917,8.041
280.0,4721091.078,-1.6,1.601,2.9,4.0,1.733,1.739,6.525,5.886
281.0,4736557.403,-1.6,1.601,2.9,4.0,2.334,2.315,8.928,8.005
282.0,4751985.092,-1.6,1.601,2.882,4.0,2.32,2.324,8.879,8.039
283.0,4767363.575,-1.6,1.601,2.9,4.0,2.328,2.322,8.904,8.032
284.0,4782762.915,-1.6,1.601,2.89,4.0,2.327,2.325,8.899,8.042
285.0,4798172.052,-1.6,1.601,2.9,4.0,2.328,2.32,8.905,8.023
286.0,4813558.974,-1.6,1.601,2.9,4.0,2.323,2.31,8.885,7.987
287.0,4828885.21,-1.6,1.601,2.9,4.0,2.315,2.313,8.851,7.998
288.0,4844291.423,-1.6,1.601,2.9,4.0,2.317,2.321,8.866,8.026
289.0,4859736.595,-1.6,1.601,2.9,4.0,2.325,2.324,8.894,8.035
290.0,4875108.26,-1.6,1.601,2.9,4.0,2.329,2.323,8.906,8.039
291.0,4890516.077,-1.6,1.601,2.9,4.0,2.326,2.313,8.898,8.001
292.0,4905914.843,-1.6,1.601,2.9,4.0,2.316,2.309,8.864,7.984
293.0,4921328.416,-1.6,1.601,2.9,4.0,2.313,2.307,8.853,7.977
294.0,4936745.444,-1.6,1.601,2.9,4.0,2.312,2.301,8.851,7.961
295.0,4952088.147,-1.6,1.601,2.9,4.0,2.304,2.307,8.822,7.974
296.0,4967522.847,-1.6,1.601,2.9,4.0,2.311,2.306,8.846,7.975
297.0,4982937.274,-1.6,1.601,2.9,4.0,2.31,2.309,8.843,7.981
298.0,4991254.798,-1.6,1.601,2.892,4.0,1.712,1.717,6.447,5.806
299.0,5006743.023,-1.6,1.601,2.9,4.0,2.319,2.307,8.876,7.974
300.0,5022185.12,-1.6,1.601,2.9,4.0,2.311,2.307,8.847,7.975
301.0,5037598.196,-1.6,1.601,2.9,4.0,2.312,2.292,8.849,7.922
302.0,5053036.756,-1.6,1.601,2.9,4.0,2.296,2.29,8.796,7.913
303.0,5068456.355,-1.6,1.601,2.9,4.0,2.295,2.299,8.793,7.947
304.0,5083885.97,-1.6,1.601,2.9,4.0,2.303,2.297,8.819,7.938
305.0,5099298.007,-1.6,1.601,2.9,4.0,2.301,2.292,8.812,7.919
306.0,5114712.979,-1.6,1.601,2.9,4.0,2.297,2.296,8.798,7.937
307.0,5130169.662,-1.6,1.601,2.9,4.0,2.3,2.29,8.807,7.911
308.0,5145582.4,-1.6,1.601,2.9,4.0,2.295,2.291,8.79,7.917
309.0,5161015.742,-1.6,1.601,2.9,4.0,2.296,2.295,8.794,7.93
310.0,5176448.037,-1.6,1.601,2.9,4.0,2.299,2.291,8.804,7.918
311.0,5191879.544,-1.6,1.601,2.9,4.0,2.295,2.292,8.792,7.922
312.0,5207361.81,-1.6,1.601,2.9,4.0,2.295,2.284,8.792,7.89
313.0,5222810.445,-1.6,1.601,2.9,4.0,2.291,2.306,8.779,7.975
314.0,5238211.412,-1.6,1.601,2.9,4.0,2.311,2.308,8.844,7.982
315.0,5253588.914,-1.6,1.601,2.9,4.0,2.312,2.291,8.849,7.923
316.0,5269010.984,-1.6,1.601,2.9,4.0,2.294,2.286,8.786,7.901
317.0,5284436.127,-1.6,1.601,2.9,4.0,2.29,2.291,8.774,7.915
318.0,5299850.05,-1.6,1.601,2.9,4.0,2.295,2.283,8.791,7.885
319.0,5315263.735,-1.6,1.601,2.9,4.0,2.288,2.287,8.767,7.902
320.0,5330705.66,-1.6,1.601,2.9,4.0,2.291,2.29,8.776,7.911
321.0,5346109.054,-1.6,1.601,2.9,4.0,2.294,2.286,8.787,7.897
322.0,5361514.873,-1.6,1.601,2.9,4.0,2.29,2.288,8.773,7.906
323.0,5376944.165,-1.6,1.601,2.9,4.0,2.292,2.286,8.781,7.897
324.0,5392399.478,-1.6,1.601,2.9,4.0,2.288,2.286,8.767,7.896
325.0,5407834.122,-1.6,1.601,2.9,4.0,2.291,2.28,8.779,7.878
326.0,5423277.748,-1.6,1.601,2.9,4.0,2.285,2.289,8.757,7.916
327.0,5438757.425,-1.6,1.601,2.9,4.0,2.293,2.28,8.786,7.877
328.0,5454204.268,-1.6,1.601,2.9,4.0,2.284,2.282,8.753,7.882
329.0,5469634.619,-1.6,1.601,2.9,4.0,2.285,2.274,8.757,7.854
330.0,5485098.641,-1.6,1.601,2.9,4.0,2.279,2.279,8.735,7.871
331.0,5500490.729,-1.6,1.601,2.899,4.0,2.284,2.277,8.751,7.867
332.0,5515939.354,-1.6,1.601,2.9,4.0,2.282,2.278,8.747,7.869
333.0,5531383.833,-1.6,1.601,2.9,4.0,2.282,2.28,8.748,7.877
334.0,5546856.589,-1.6,1.601,2.9,4.0,2.284,2.285,8.754,7.896
335.0,5562288.71,-1.6,1.601,2.9,4.0,2.29,2.282,8.771,7.882
336.0,5577710.965,-1.6,1.601,2.9,4.0,2.285,2.276,8.756,7.863
337.0,5593155.284,-1.6,1.601,2.9,4.0,2.282,2.281,8.746,7.881
338.0,5608576.945,-1.6,1.601,2.9,4.0,2.285,2.284,8.756,7.891
339.0,5623990.878,-1.6,1.601,2.9,4.0,2.288,2.284,8.767,7.895
340.0,5639413.074,-1.6,1.601,2.9,4.0,2.288,2.276,8.765,7.862
341.0,5654867.819,-1.6,1.601,2.9,4.0,2.28,2.276,8.738,7.861
342.0,5670308.101,-1.6,1.601,2.9,4.0,2.28,2.274,8.738,7.854
343.0,5685755.462,-1.6,1.601,2.9,4.0,2.278,2.275,8.733,7.857
344.0,5701198.722,-1.6,1.601,2.9,4.0,2.279,2.273,8.735,7.851
345.0,5716652.445,-1.6,1.601,2.9,4.0,2.277,2.273,8.73,7.852
346.0,5732109.387,-1.6,1.601,2.9,4.0,2.277,2.268,8.728,7.834
347.0,5747576.369,-1.6,1.601,2.9,4.0,2.272,2.27,8.712,7.838
348.0,5763010.318,-1.6,1.601,2.805,4.0,2.274,2.271,8.719,7.843
349.0,5778441.104,-1.6,1.601,2.9,4.0,2.275,2.267,8.722,7.83
350.0,5793882.524,-1.6,1.601,2.9,4.0,2.272,2.27,8.711,7.841
351.0,5809329.148,-1.6,1.601,2.9,4.0,2.273,2.266,8.717,7.825
352.0,5824769.415,-1.6,1.601,2.9,4.0,2.27,2.263,8.704,7.814
353.0,5840209.857,-1.6,1.601,2.9,4.0,2.267,2.266,8.695,7.826
354.0,5855652.077,-1.6,1.601,2.9,4.0,2.271,2.267,8.708,7.827
355.0,5871120.441,-1.6,1.601,2.9,4.0,2.27,2.267,8.706,7.83
356.0,5886555.814,-1.6,1.601,2.9,4.0,2.272,2.265,8.71,7.822
357.0,5902010.561,-1.6,1.601,2.9,4.0,2.269,2.261,8.699,7.807
358.0,5917486.975,-1.6,1.601,2.9,4.0,2.265,2.262,8.688,7.81
359.0,5932950.526,-1.6,1.601,2.9,4.0,2.267,2.263,8.694,7.816
360.0,5948398.594,-1.6,1.601,2.9,4.0,2.267,2.26,8.695,7.804
361.0,5963843.277,-1.6,1.601,2.898,4.0,2.265,2.261,8.688,7.81
362.0,5979321.693,-1.6,1.601,2.9,4.0,2.265,2.263,8.688,7.814
363.0,5994781.388,-1.6,1.601,2.9,4.0,2.267,2.259,8.694,7.801
364.0,6010252.722,-1.6,1.601,2.9,4.0,2.263,2.261,8.681,7.808
365.0,6025737.783,-1.6,1.601,2.9,4.0,2.266,2.276,8.69,7.856
366.0,6041278.776,-1.6,1.601,2.9,4.0,2.28,2.258,8.739,7.795
367.0,6056733.241,-1.6,1.601,2.729,4.0,2.263,2.26,8.68,7.803
368.0,6072175.342,-1.6,1.601,2.9,4.0,2.264,2.257,8.684,7.794
369.0,6087625.963,-1.6,1.601,2.9,4.0,2.261,2.255,8.675,7.786
370.0,6103072.54,-1.6,1.601,2.9,4.0,2.26,2.257,8.67,7.795
371.0,6118512.738,-1.6,1.601,2.9,4.0,2.262,2.255,8.676,7.786
372.0,6133953.002,-1.6,1.601,2.9,4.0,2.259,2.256,8.667,7.79
373.0,6149385.343,-1.6,1.601,2.9,4.0,2.261,2.255,8.673,7.785
374.0,6164856.114,-1.6,1.601,2.9,4.0,2.259,2.257,8.667,7.793
375.0,6180302.714,-1.6,1.601,2.9,4.0,2.261,2.249,8.672,7.764
376.0,6195763.966,-1.6,1.601,2.9,4.0,2.253,2.25,8.647,7.767
377.0,6203741.287,-1.6,1.601,2.9,4.0,1.641,1.645,6.195,5.551
378.0,6219289.81,-1.6,1.601,2.9,4.0,2.267,2.251,8.699,7.769
379.0,6234714.107,-1.6,1.601,2.9,4.0,2.257,2.249,8.658,7.766
380.0,6250174.579,-1.6,1.601,2.9,4.0,2.253,2.25,8.646,7.767
381.0,6265603.333,-1.6,1.601,2.9,4.0,2.254,2.246,8.651,7.754
382.0,6281091.607,-1.6,1.601,2.9,4.0,2.25,2.248,8.636,7.757
383.0,6296505.521,-1.6,1.601,2.9,4.0,2.253,2.249,8.644,7.763
384.0,6311961.499,-1.6,1.601,2.9,4.0,2.253,2.249,8.645,7.765
385.0,6327421.322,-1.6,1.601,2.9,4.0,2.254,2.251,8.65,7.771
386.0,6342881.94,-1.6,1.601,2.9,4.0,2.254,2.248,8.648,7.759
387.0,6358307.599,-1.6,1.601,2.9,4.0,2.252,2.246,8.642,7.748
388.0,6373756.785,-1.6,1.601,2.9,4.0,2.251,2.247,8.638,7.756
389.0,6389196.29,-1.6,1.601,2.9,4.0,2.251,2.242,8.639,7.738
390.0,6404653.582,-1.6,1.601,2.9,4.0,2.247,2.249,8.624,7.764
391.0,6420092.277,-1.6,1.601,2.9,4.0,2.254,2.25,8.649,7.766
392.0,6435466.228,-1.6,1.601,2.9,4.0,2.253,2.244,8.644,7.744
393.0,6450920.784,-1.6,1.601,2.899,4.0,2.248,2.246,8.629,7.751
394.0,6466379.675,-1.6,1.601,2.9,4.0,2.25,2.24,8.635,7.731
395.0,6481841.666,-1.599,1.601,2.9,4.0,2.245,2.242,8.618,7.735
396.0,6489746.976,-1.6,1.601,2.9,4.0,1.617,1.629,6.105,5.493
397.0,6505269.817,-1.6,1.601,2.898,4.0,2.258,2.241,8.668,7.732
398.0,6520733.444,-1.6,1.601,2.899,4.0,2.247,2.241,8.623,7.733
399.0,6536219.114,-1.599,1.601,2.9,4.0,2.246,2.242,8.622,7.737
400.0,6551710.684,-1.6,1.601,2.9,4.0,2.246,2.242,8.623,7.737
401.0,6567194.874,-1.6,1.601,2.9,4.0,2.246,2.238,8.622,7.723
402.0,6575099.369,-1.6,1.601,2.9,4.0,1.614,1.631,6.097,5.499
403.0,6590613.501,-1.6,1.601,2.9,4.0,2.26,2.24,8.674,7.733
404.0,6606043.099,-1.6,1.601,2.9,4.0,2.244,2.238,8.614,7.723
405.0,6621466.425,-1.6,1.601,2.9,4.0,2.242,2.239,8.609,7.726
406.0,6636877.056,-1.6,1.601,2.9,4.0,2.245,2.236,8.616,7.716
407.0,6652344.19,-1.6,1.601,2.9,4.0,2.24,2.234,8.599,7.708
408.0,6667854.153,-1.6,1.601,2.9,4.0,2.239,2.24,8.6,7.732
409.0,6675758.688,-1.6,1.601,2.9,4.0,1.616,1.629,6.102,5.496
410.0,6691344.148,-1.6,1.601,2.9,4.0,2.258,2.241,8.667,7.732
411.0,6706803.916,-1.736,1.601,2.9,4.0,2.246,2.246,8.621,7.75
412.0,6722301.84,-1.6,1.601,2.9,4.0,2.249,2.236,8.631,7.714
413.0,6737801.398,-1.6,1.601,2.9,4.0,2.24,2.238,8.602,7.722
414.0,6753238.329,-1.6,1.601,2.9,4.0,2.242,2.23,8.605,7.694
415.0,6768669.479,-1.6,1.601,2.9,4.0,2.235,2.23,8.582,7.694
416.0,6784161.073,-1.6,1.601,2.9,4.0,2.234,2.234,8.579,7.707
417.0,6799629.159,-1.6,1.601,2.9,4.0,2.239,2.235,8.596,7.71
418.0,6815107.268,-1.6,1.601,2.9,4.0,2.239,2.234,8.597,7.707
419.0,6830588.025,-1.6,1.601,2.9,4.0,2.237,2.233,8.591,7.702
420.0,6846005.47,-1.6,1.601,2.9,4.0,2.238,2.233,8.589,7.707
421.0,6861469.911,-1.6,1.601,2.9,4.0,2.237,2.232,8.591,7.704
422.0,6876926.246,-1.6,1.601,2.9,4.0,2.235,2.223,8.585,7.669
423.0,6892397.001,-1.6,1.601,2.9,4.0,2.228,2.227,8.559,7.685
424.0,6907863.489,-1.6,1.601,2.9,4.0,2.231,2.228,8.569,7.684
425.0,6923336.506,-4.254,1.601,2.9,4.0,2.233,2.232,8.574,7.702
426.0,6938814.747,-1.6,1.601,2.9,4.0,2.236,2.24,8.584,7.731
427.0,6954186.257,-1.6,1.601,2.9,4.0,2.244,2.238,8.612,7.728
428.0,6969675.617,-1.6,1.601,2.9,4.0,2.241,2.229,8.604,7.692
429.0,6985154.476,-1.6,1.601,2.9,4.0,2.233,2.221,8.576,7.66
430.0,7000628.772,-1.6,1.601,2.9,4.0,2.225,2.216,8.547,7.642
431.0,7016124.477,-1.6,1.601,2.9,4.0,2.222,2.233,8.538,7.707
432.0,7031556.198,-1.6,1.601,2.9,4.0,2.238,2.234,8.592,7.712
433.0,7046982.304,-1.6,1.601,2.9,4.0,2.238,2.229,8.592,7.691
434.0,7062423.696,-1.6,1.601,2.9,4.0,2.233,2.225,8.575,7.678
435.0,7077892.242,-1.6,1.601,2.9,4.0,2.229,2.222,8.561,7.665
436.0,7093337.403,-1.6,1.601,2.9,4.0,2.226,2.227,8.552,7.684
437.0,7108760.326,-1.6,1.601,2.9,4.0,2.232,2.227,8.569,7.682
438.0,7124202.653,-1.6,1.601,2.9,4.0,2.231,2.221,8.565,7.661
439.0,7139633.608,-1.6,1.601,2.9,4.0,2.225,2.221,8.549,7.66
440.0,7155071.263,-1.6,1.601,2.9,4.0,2.225,2.22,8.549,7.657
441.0,7170512.306,-1.6,1.601,2.9,4.0,2.223,2.213,8.541,7.631
442.0,7186073.848,-1.6,1.601,2.9,4.0,2.218,2.227,8.527,7.681
443.0,7201505.805,-1.6,1.601,2.9,4.0,2.231,2.232,8.568,7.703
444.0,7216914.656,-1.6,1.601,2.9,4.0,2.237,2.227,8.575,7.685
445.0,7232335.972,-1.6,1.601,2.9,4.0,2.231,2.222,8.566,7.665
446.0,7247704.661,-1.6,1.601,2.9,4.0,2.226,2.219,8.544,7.657
447.0,7263145.937,-1.6,1.601,2.899,4.0,2.223,2.215,8.54,7.641
448.0,7278605.786,-1.6,1.601,2.9,4.0,2.219,2.215,8.529,7.639
449.0,7294051.554,-1.6,1.601,2.9,4.0,2.219,2.216,8.528,7.644
450.0,7309495.708,-1.6,1.601,2.9,4.0,2.219,2.208,8.529,7.613
451.0,7324972.737,-1.6,1.601,2.9,4.0,2.212,2.211,8.504,7.625
452.0,7340404.842,-1.6,1.601,2.9,4.0,2.216,2.213,8.516,7.634
453.0,7355854.6,-1.6,1.601,2.9,4.0,2.218,2.21,8.523,7.622
454.0,7371330.127,-1.6,1.601,2.9,4.0,2.214,2.21,8.511,7.622
455.0,7386788.393,-1.6,1.601,2.9,4.0,2.215,2.209,8.512,7.617
456.0,7402240.851,-1.6,1.601,2.9,4.0,2.213,2.204,8.505,7.598
457.0,7417707.769,-1.6,1.601,2.9,4.0,2.208,2.206,8.489,7.604
458.0,7433162.264,-1.6,1.601,2.9,4.0,2.211,2.209,8.499,7.619
459.0,7448603.508,-1.6,1.601,2.9,4.0,2.215,2.215,8.51,7.642
460.0,7464047.502,-1.6,1.601,2.9,4.0,2.22,2.226,8.53,7.685
461.0,7471869.639,-1.6,1.601,2.9,4.0,1.6,1.609,6.045,5.424
462.0,7487403.511,-1.6,1.601,2.9,4.0,2.238,2.206,8.599,7.607
463.0,7502848.939,-1.6,1.601,2.9,4.0,2.21,2.202,8.497,7.591
464.0,7518316.45,-2.805,1.601,2.9,4.0,2.206,2.201,8.482,7.586
465.0,7533730.081,-1.6,1.601,2.9,4.0,2.206,2.212,8.483,7.63
466.0,7549136.271,-1.6,1.601,2.899,4.0,2.218,2.218,8.52,7.652
467.0,7564544.672,-1.6,1.601,2.9,4.0,2.222,2.215,8.534,7.639
468.0,7579931.501,-1.6,1.601,2.9,4.0,2.218,2.213,8.522,7.632
469.0,7595342.988,-1.6,1.601,2.9,4.0,2.216,2.205,8.516,7.604
470.0,7610802.842,-1.6,1.601,2.9,4.0,2.208,2.21,8.489,7.616
471.0,7626249.302,-1.6,1.601,2.9,4.0,2.215,2.209,8.513,7.619
472.0,7634016.528,-1.6,1.601,2.9,4.0,1.582,1.603,5.979,5.401
473.0,7649568.118,-1.6,1.601,2.9,4.0,2.235,2.21,8.59,7.622
474.0,7664999.816,-1.6,1.601,2.9,4.0,2.215,2.211,8.511,7.627
475.0,7680370.015,-1.861,1.601,2.9,4.0,2.215,2.2,8.511,7.586
476.0,7695826.464,-1.6,1.601,2.9,4.0,2.203,2.194,8.472,7.562
477.0,7711263.455,-1.6,1.601,2.9,4.0,2.198,2.185,8.454,7.527
478.0,7726781.318,-1.6,1.601,2.9,4.0,2.19,2.19,8.428,7.547
479.0,7742249.503,-1.6,1.601,2.9,4.0,2.195,2.189,8.444,7.543
480.0,7757732.784,-1.6,1.601,2.9,4.0,2.193,2.192,8.437,7.553
481.0,7773186.489,-1.6,1.601,2.9,4.0,2.198,2.194,8.452,7.563
482.0,7788647.566,-1.6,1.601,2.9,4.0,2.199,2.193,8.457,7.559
483.0,7804136.852,-1.6,1.601,2.9,4.0,2.197,2.198,8.449,7.577
484.0,7819563.867,-1.6,1.601,2.9,4.0,2.202,2.191,8.467,7.551
485.0,7835027.09,-1.6,1.601,2.9,4.0,2.194,2.188,8.44,7.539
486.0,7850254.133,-1.6,1.601,2.9,4.001,2.193,2.19,8.435,7.545
487.0,7865675.47,-1.6,1.601,2.9,4.0,2.194,2.193,8.439,7.56
488.0,7881113.531,-1.6,1.601,2.9,4.0,2.197,2.188,8.45,7.539
489.0,7896555.283,-1.6,1.601,2.9,4.0,2.192,2.189,8.434,7.546
490.0,7911992.484,-1.6,1.601,2.9,4.0,2.193,2.188,8.438,7.54
491.0,7927444.63,-1.6,1.601,2.9,4.0,2.192,2.181,8.432,7.514
492.0,7942896.326,-1.6,1.601,2.9,4.0,2.186,2.188,8.413,7.541
493.0,7958355.956,-1.847,1.601,2.9,4.0,2.193,2.189,8.436,7.544
494.0,7973804.86,-1.6,1.601,2.9,4.0,2.193,2.196,8.436,7.57
495.0,7989212.252,-1.6,1.601,2.9,4.0,2.201,2.201,8.463,7.589
496.0,8004629.924,-1.6,1.601,2.9,4.0,2.205,2.198,8.475,7.58
497.0,8020033.713,-1.6,1.601,2.9,4.0,2.202,2.195,8.467,7.569
498.0,8035447.857,-1.6,1.601,2.9,4.0,2.2,2.206,8.459,7.607
499.0,8050862.27,-1.6,1.601,2.9,4.0,2.211,2.203,8.494,7.601
500.0,8066208.492,-1.6,1.601,2.9,4.0,2.207,2.199,8.48,7.582
501.0,8081594.568,-1.6,1.601,2.9,4.0,2.203,2.201,8.468,7.589
502.0,8096972.504,-1.6,1.601,2.9,4.0,2.205,2.2,8.475,7.588
503.0,8112364.714,-1.6,1.601,2.9,4.0,2.204,2.194,8.471,7.564
504.0,8127781.45,-2.715,1.601,2.9,4.0,2.197,2.191,8.45,7.554
505.0,8143177.944,-1.6,1.601,2.9,4.0,2.196,2.203,8.445,7.597
506.0,8158636.486,-1.6,1.601,2.9,4.0,2.208,2.195,8.487,7.568
507.0,8174031.739,-1.6,1.601,2.9,4.0,2.198,2.187,8.45,7.538
508.0,8189456.076,-1.6,1.601,2.9,4.0,2.19,2.179,8.426,7.509
509.0,8197011.581,-1.6,1.601,2.9,4.0,1.537,1.553,5.817,5.225
510.0,8212630.913,-1.6,1.601,2.9,4.0,2.199,2.177,8.467,7.499
511.0,8228083.62,-1.6,1.601,2.9,4.0,2.183,2.177,8.403,7.5
512.0,8243518.664,-1.6,1.601,2.9,4.0,2.181,2.182,8.395,7.52
513.0,8258960.484,-1.6,1.601,2.9,4.0,2.186,2.173,8.411,7.487
514.0,8274410.743,-1.6,1.601,2.9,4.0,2.177,2.168,8.38,7.467
515.0,8289881.58,-1.934,1.601,2.9,4.0,2.172,2.172,8.365,7.481
516.0,8305284.482,-1.6,1.601,2.9,4.0,2.177,2.176,8.38,7.495
517.0,8320741.248,-1.6,1.601,2.9,4.0,2.181,2.183,8.394,7.524
518.0,8336167.993,-1.6,1.601,2.9,4.0,2.187,2.18,8.413,7.514
519.0,8351583.045,-1.6,1.601,2.9,4.0,2.184,2.176,8.405,7.499
520.0,8367009.899,-1.6,1.601,2.9,4.0,2.18,2.174,8.391,7.488
521.0,8382440.073,-1.6,1.601,2.9,4.0,2.177,2.168,8.382,7.467
522.0,8397849.018,-1.608,1.601,2.9,4.0,2.181,2.176,8.393,7.499
523.0,8413277.62,-1.6,1.601,2.9,4.0,2.18,2.175,8.39,7.494
524.0,8428686.446,-1.6,1.601,2.899,4.0,2.18,2.182,8.39,7.518
525.0,8444093.55,-1.6,1.601,2.9,4.0,2.189,2.181,8.42,7.524
526.0,8459508.193,-1.6,1.601,2.9,4.0,2.186,2.178,8.41,7.507
527.0,8474945.045,-1.6,1.601,2.9,4.0,2.183,2.181,8.399,7.518
528.0,8490345.384,-1.6,1.601,2.9,4.0,2.186,2.177,8.409,7.504
529.0,8505779.18,-1.6,1.601,2.9,4.0,2.182,2.178,8.395,7.506
530.0,8521165.391,-1.6,1.601,2.9,4.0,2.182,2.178,8.397,7.506
531.0,8536550.827,-1.6,1.601,2.9,4.0,2.182,2.177,8.396,7.504
532.0,8551947.35,-1.6,1.601,2.9,4.0,2.181,2.177,8.394,7.504
533.0,8567319.583,-1.6,1.601,2.9,4.0,2.181,2.178,8.394,7.507
534.0,8582710.707,-1.6,1.601,2.9,4.0,2.182,2.176,8.396,7.497
535.0,8598115.951,-1.6,1.601,2.9,4.0,2.18,2.178,8.389,7.504
536.0,8613475.055,-1.6,1.601,2.9,4.0,2.184,2.18,8.4,7.513
537.0,8628862.372,-1.6,1.601,2.9,4.0,2.184,2.181,8.402,7.516
538.0,8644260.033,-1.6,1.601,2.9,4.0,2.185,2.182,8.406,7.52
539.0,8659541.023,-1.6,1.601,2.9,4.0,2.184,2.169,8.399,7.471
540.0,8674950.189,-1.6,1.601,2.9,4.0,2.174,2.175,8.367,7.49
541.0,8690304.995,-1.863,1.601,2.9,4.0,2.181,2.181,8.39,7.519
542.0,8705669.811,-1.6,1.601,2.9,4.0,2.185,2.179,8.405,7.511
543.0,8721040.114,-1.6,1.601,2.9,4.0,2.182,2.173,8.394,7.487
544.0,8736396.495,-1.6,1.601,2.9,4.0,2.178,2.173,8.38,7.487
545.0,8751756.609,-1.6,1.601,2.9,4.0,2.176,2.174,8.375,7.487
546.0,8767158.359,-5.059,1.601,2.9,4.0,2.179,2.178,8.384,7.507
547.0,8782541.645,-1.6,1.601,2.9,4.0,2.183,2.178,8.399,7.509
548.0,8797912.93,-2.287,1.601,2.9,4.0,2.181,2.172,8.392,7.484
549.0,8813299.328,-1.6,1.601,2.9,4.0,2.175,2.165,8.371,7.459
550.0,8828668.271,-1.6,1.601,2.9,4.0,2.17,2.17,8.353,7.476
551.0,8844066.476,-1.6,1.601,2.9,4.0,2.174,2.169,8.367,7.475
552.0,8859341.254,-1.6,1.601,2.9,4.0,2.173,2.161,8.361,7.442
553.0,8874745.042,-1.6,1.601,2.9,4.0,2.164,2.154,8.334,7.415
554.0,8890172.368,-1.6,1.601,2.9,4.0,2.157,2.146,8.311,7.386
555.0,8905637.316,-1.6,1.601,2.9,4.0,2.15,2.147,8.286,7.388
556.0,8921071.799,-1.6,1.601,2.9,4.0,2.152,2.153,8.292,7.409
557.0,8936475.875,-1.6,1.601,2.9,4.0,2.157,2.153,8.311,7.412
558.0,8943897.492,-2.14,1.601,2.9,4.0,1.506,1.525,5.704,5.126
559.0,8959443.645,-1.6,1.601,2.9,4.0,2.176,2.144,8.387,7.379
560.0,8974859.056,-1.6,1.601,2.9,4.0,2.148,2.139,8.28,7.36
561.0,8990291.219,-1.6,1.601,2.9,4.0,2.143,2.139,8.262,7.358
562.0,9005703.453,-1.6,1.601,2.9,4.0,2.145,2.15,8.267,7.398
563.0,9021099.823,-1.6,1.601,2.9,4.0,2.155,2.156,8.301,7.421
564.0,9036518.879,-1.6,1.601,2.9,4.0,2.159,2.145,8.319,7.382
565.0,9052152.447,-1.6,1.601,2.9,4.0,2.152,2.148,8.294,7.399
566.0,9067567.206,-1.6,1.601,2.9,4.0,2.149,2.14,8.282,7.364
567.0,9083027.762,-1.6,1.601,2.9,4.0,2.145,2.142,8.268,7.371
568.0,9098442.477,-1.6,1.601,2.9,4.0,2.146,2.144,8.274,7.381
569.0,9113853.088,-1.6,1.601,2.9,4.0,2.148,2.14,8.279,7.363
570.0,9129292.873,-1.6,1.601,2.9,4.0,2.144,2.136,8.265,7.349
571.0,9144724.6,-1.6,1.601,2.9,4.0,2.14,2.132,8.25,7.335
572.0,9160177.396,-1.6,1.601,2.9,4.0,2.136,2.129,8.239,7.322
573.0,9175619.403,-1.6,1.601,2.9,4.0,2.135,2.137,8.233,7.354
574.0,9191063.401,-1.6,1.601,2.9,4.0,2.141,2.138,8.254,7.357
575.0,9206472.898,-1.6,1.601,2.9,4.0,2.142,2.135,8.259,7.344
576.0,9221868.297,-1.6,1.601,2.9,4.0,2.139,2.132,8.247,7.332
577.0,9237298.847,-1.6,1.601,2.9,4.0,2.135,2.126,8.235,7.311
578.0,9252788.754,-1.6,1.601,2.9,4.0,2.13,2.133,8.219,7.339
579.0,9268200.128,-1.6,1.601,2.9,4.0,2.139,2.139,8.247,7.359
580.0,9283596.672,-1.6,1.601,2.9,4.0,2.143,2.143,8.261,7.379
581.0,9298977.368,-1.6,1.601,2.9,4.0,2.147,2.139,8.273,7.362
582.0,9306313.119,-1.6,1.601,2.9,4.0,1.486,1.507,5.633,5.06
583.0,9321871.353,-1.6,1.601,2.9,4.0,2.163,2.13,8.342,7.326
584.0,9337326.998,-1.6,1.601,2.9,4.0,2.135,2.139,8.235,7.358
585.0,9352746.024,-1.6,1.601,2.9,4.0,2.144,2.142,8.264,7.372
586.0,9368132.803,-1.6,1.601,2.9,4.0,2.147,2.144,8.273,7.382
587.0,9383471.409,-1.6,1.601,2.9,4.0,2.148,2.141,8.276,7.369
588.0,9398853.007,-1.6,1.601,2.9,4.0,2.144,2.13,8.261,7.329
589.0,9414286.591,-1.6,1.601,2.9,4.0,2.134,2.123,8.229,7.3
590.0,9429725.985,-1.6,1.601,2.9,4.0,2.128,2.13,8.21,7.326
591.0,9445090.991,-1.6,1.601,2.9,4.0,2.135,2.13,8.232,7.329
592.0,9460456.271,-1.6,1.601,2.9,4.0,2.135,2.134,8.232,7.342
593.0,9475834.677,-1.6,1.601,2.9,4.0,2.138,2.13,8.242,7.33
594.0,9491218.682,-1.827,1.601,2.9,4.0,2.134,2.126,8.23,7.313
595.0,9506623.288,-1.6,1.601,2.9,4.0,2.13,2.127,8.214,7.314
596.0,9521964.074,-1.6,1.601,2.9,4.0,2.133,2.136,8.223,7.352
597.0,9537342.956,-1.6,1.601,2.9,4.0,2.14,2.135,8.251,7.348
598.0,9552721.108,-1.6,1.601,2.9,4.0,2.139,2.136,8.247,7.35
599.0,9568084.205,-1.6,1.601,2.9,4.0,2.14,2.136,8.249,7.352
600.0,9583440.734,-1.9,1.601,2.9,4.0,2.14,2.134,8.25,7.344
601.0,9598839.606,-1.6,1.601,2.9,4.0,2.138,2.14,8.243,7.366
602.0,9614179.234,-1.6,1.601,2.9,4.0,2.146,2.137,8.268,7.357
603.0,9629532.589,-1.6,1.601,2.9,4.0,2.141,2.135,8.251,7.35
604.0,9644903.053,-1.6,1.601,2.9,4.0,2.139,2.131,8.245,7.333
605.0,9660169.042,-1.6,1.601,2.9,4.0,2.135,2.129,8.232,7.327
606.0,9675517.578,-1.6,1.601,2.9,4.0,2.133,2.124,8.224,7.309
607.0,9690853.354,-1.6,1.601,2.9,4.0,2.129,2.124,8.211,7.311
608.0,9706253.55,-1.6,1.601,2.9,4.0,2.128,2.129,8.208,7.325
609.0,9721619.611,-1.6,1.601,2.9,4.0,2.133,2.127,8.226,7.32
610.0,9737001.455,-1.6,1.601,2.9,4.0,2.132,2.129,8.221,7.328
611.0,9752361.214,-1.6,1.601,2.9,4.0,2.134,2.13,8.227,7.33
612.0,9759657.282,-1.6,1.601,2.9,4.0,1.477,1.498,5.599,5.031
613.0,9775166.185,-1.6,1.601,2.9,4.0,2.156,2.123,8.314,7.303
614.0,9790534.62,-1.6,1.601,2.9,4.0,2.127,2.119,8.205,7.289
615.0,9805886.74,-1.6,1.601,2.9,4.0,2.124,2.121,8.193,7.296
616.0,9821266.007,-1.6,1.601,2.9,4.0,2.126,2.125,8.2,7.309
617.0,9836628.622,-1.6,1.601,2.9,4.0,2.129,2.127,8.211,7.317
618.0,9851998.515,-1.6,1.601,2.9,4.0,2.131,2.131,8.218,7.333
619.0,9867345.44,-1.6,1.601,2.9,4.0,2.135,2.128,8.228,7.319
620.0,9882699.988,-1.6,1.601,2.9,4.0,2.132,2.13,8.22,7.326
621.0,9898012.345,-1.6,1.601,2.9,4.0,2.135,2.131,8.227,7.336
622.0,9913347.855,-1.6,1.601,2.9,4.0,2.136,2.129,8.232,7.328
623.0,9928686.608,-1.6,1.601,2.9,4.0,2.133,2.126,8.223,7.316
624.0,9944075.095,-1.6,1.601,2.9,4.0,2.131,2.128,8.216,7.322
625.0,9951377.308,-1.6,1.601,2.9,4.0,1.477,1.501,5.6,5.041
626.0,9966870.698,-1.6,1.601,2.9,4.0,2.156,2.127,8.314,7.317
627.0,9982201.879,-1.6,1.601,2.9,4.0,2.13,2.125,8.215,7.309
628.0,9997567.668,-1.6,1.601,2.9,4.0,2.13,2.125,8.215,7.312
629.0,10012917.59,-1.6,1.601,2.9,4.0,2.129,2.118,8.209,7.288
630.0,10028305.063,-1.6,1.601,2.9,4.0,2.122,2.124,8.188,7.304
631.0,10043667.688,-1.6,1.601,2.9,4.0,2.129,2.128,8.21,7.326
632.0,10059042.165,-1.6,1.601,2.9,4.0,2.132,2.122,8.22,7.3
633.0,10074351.538,-1.6,1.601,2.9,4.0,2.126,2.126,8.199,7.315
634.0,10089663.889,-1.6,1.601,2.9,4.0,2.13,2.123,8.211,7.307
635.0,10104987.277,-1.6,1.601,2.9,4.0,2.127,2.12,8.203,7.295
636.0,10120312.407,-1.6,1.601,2.899,4.0,2.125,2.126,8.195,7.318
637.0,10135661.359,-1.6,1.601,2.899,4.0,2.13,2.121,8.215,7.299
638.0,10150991.946,-1.6,1.601,2.9,4.0,2.124,2.119,8.192,7.29
639.0,10166306.036,-1.6,1.601,2.9,4.0,2.123,2.121,8.19,7.299
640.0,10181608.322,-1.695,1.601,2.9,4.0,2.126,2.122,8.197,7.302
641.0,10196891.495,-1.6,1.601,2.9,4.0,2.126,2.118,8.199,7.289
642.0,10212164.913,-1.6,1.601,2.9,4.0,2.122,2.116,8.186,7.278
643.0,10227498.436,-1.6,1.601,2.9,4.0,2.12,2.118,8.18,7.292
644.0,10242836.553,-1.6,1.601,2.9,4.0,2.123,2.12,8.188,7.294
645.0,10258166.261,-1.6,1.601,2.9,4.0,2.125,2.134,8.195,7.348
646.0,10273417.098,-1.6,1.601,2.9,4.0,2.138,2.112,8.24,7.27
647.0,10288703.185,-1.6,1.601,2.9,4.0,2.115,2.115,8.16,7.276
648.0,10304016.283,-1.6,1.601,2.9,4.0,2.12,2.112,8.176,7.265
649.0,10319371.513,-1.6,1.601,2.9,4.0,2.116,2.109,8.164,7.255
650.0,10334663.509,-1.6,1.601,2.9,4.0,2.114,2.112,8.157,7.264
651.0,10350005.747,-1.6,1.601,2.899,4.0,2.116,2.115,8.163,7.276
652.0,10365308.655,-1.6,1.601,2.9,4.0,2.119,2.114,8.173,7.273
653.0,10380582.005,-1.6,1.601,2.9,4.0,2.118,2.112,8.17,7.263
654.0,10395878.744,-1.6,1.601,2.9,4.0,2.116,2.118,8.164,7.286
655.0,10411196.152,-1.6,1.601,2.9,4.0,2.123,2.118,8.186,7.289
656.0,10426459.032,-1.6,1.601,2.9,4.0,2.121,2.113,8.182,7.269
657.0,10441728.738,-1.6,1.601,2.9,4.0,2.118,2.115,8.172,7.277
658.0,10456968.173,-1.6,1.601,2.9,4.0,2.118,2.115,8.171,7.279
659.0,10472212.339,-1.6,1.601,2.9,4.0,2.119,2.118,8.176,7.29
660.0,10487500.469,-1.6,1.601,2.9,4.0,2.122,2.113,8.185,7.272
661.0,10502771.686,-1.6,1.601,2.9,4.0,2.118,2.115,8.17,7.279
662.0,10518054.644,-1.6,1.601,2.9,4.0,2.119,2.117,8.175,7.284
663.0,10533301.449,-1.6,1.601,2.9,4.0,2.121,2.117,8.179,7.285
664.0,10548554.376,-1.6,1.601,2.9,4.0,2.121,2.121,8.181,7.298
665.0,10563833.38,-1.6,1.601,2.9,4.0,2.124,2.109,8.19,7.259
666.0,10579097.257,-1.6,1.601,2.9,4.0,2.113,2.101,8.153,7.226
667.0,10594399.358,-1.6,1.601,2.9,4.0,2.105,2.096,8.125,7.206
668.0,10609716.456,-1.6,1.601,2.9,4.0,2.1,2.092,8.107,7.187
669.0,10625057.625,-1.6,1.601,2.9,4.0,2.095,2.086,8.093,7.167
670.0,10640384.49,-1.6,1.601,2.9,4.0,2.091,2.092,8.079,7.189
671.0,10655712.875,-1.6,1.601,2.9,4.0,2.097,2.099,8.097,7.214
672.0,10671005.505,-2.307,1.601,2.9,4.0,2.103,2.097,8.116,7.21
673.0,10686315.632,-1.6,1.601,2.9,4.0,2.101,2.088,8.112,7.176
674.0,10701639.263,-1.6,1.601,2.9,4.0,2.092,2.083,8.082,7.157
675.0,10716990.096,-1.6,1.601,2.9,4.0,2.087,2.085,8.065,7.161
676.0,10732238.066,-1.6,1.601,2.9,4.0,2.091,2.097,8.077,7.207
677.0,10747508.14,-1.6,1.601,2.9,4.0,2.102,2.102,8.113,7.231
678.0,10762788.959,-1.6,1.601,2.899,4.0,2.106,2.097,8.131,7.213
679.0,10778088.328,-1.6,1.601,2.9,4.0,2.1,2.086,8.109,7.17
680.0,10793392.491,-1.6,1.601,2.9,4.0,2.089,2.079,8.071,7.141
681.0,10808778.486,-1.6,1.601,2.9,4.0,2.084,2.092,8.054,7.191
682.0,10824064.747,-1.6,1.601,2.9,4.0,2.098,2.098,8.102,7.213
683.0,10839269.299,-1.6,1.601,2.9,4.0,2.101,2.096,8.111,7.207
684.0,10846368.038,-1.6,1.601,2.9,4.0,1.432,1.455,5.436,4.88
685.0,10861888.125,-1.6,1.601,2.9,4.0,2.123,2.117,8.2,7.269
686.0,10877267.128,-1.6,1.601,2.9,4.0,2.121,2.087,8.185,7.172
687.0,10892609.71,-1.6,1.601,2.9,4.0,2.091,2.09,8.078,7.183
688.0,10907902.425,-1.6,1.601,2.9,4.0,2.095,2.095,8.092,7.204
689.0,10923198.451,-1.6,1.601,2.9,4.0,2.099,2.093,8.106,7.197
690.0,10938459.775,-1.6,1.601,2.9,4.0,2.098,2.093,8.099,7.198
691.0,10953729.148,-1.6,1.601,2.9,4.0,2.097,2.09,8.098,7.184
692.0,10969007.996,-1.6,1.601,2.9,4.0,2.093,2.087,8.085,7.173
693.0,10984317.014,-1.6,1.601,2.9,4.0,2.092,2.092,8.079,7.192
694.0,10999575.605,-1.6,1.601,2.9,4.0,2.096,2.092,8.094,7.196
695.0,11014859.997,-1.6,1.601,2.9,4.0,2.095,2.093,8.092,7.196
696.0,11030115.096,-4.029,1.601,2.9,4.0,2.097,2.095,8.097,7.202
697.0,11045378.043,-1.6,1.601,2.9,4.0,2.099,2.092,8.102,7.191
698.0,11060654.714,-1.6,1.601,2.9,4.0,2.096,2.091,8.092,7.187
699.0,11075880.072,-1.6,1.601,2.9,4.0,2.094,2.091,8.088,7.189
700.0,11091118.467,-4.374,1.601,2.9,4.0,2.095,2.092,8.09,7.193
701.0,11106369.263,-1.6,1.601,2.9,4.0,2.095,2.09,8.091,7.184
702.0,11113461.116,-1.6,1.601,2.9,4.0,1.429,1.455,5.427,4.879
703.0,11128882.522,-1.6,1.601,2.9,4.0,2.119,2.087,8.184,7.175
704.0,11144160.979,-1.6,1.601,2.9,4.0,2.092,2.092,8.079,7.19
705.0,11159385.629,-1.6,1.601,2.9,4.0,2.096,2.09,8.092,7.189
706.0,11174574.155,-1.6,1.601,2.9,4.0,2.093,2.084,8.082,7.16
707.0,11189858.313,-1.6,1.601,2.9,4.0,2.088,2.078,8.067,7.14
708.0,11205094.681,-1.6,1.601,2.9,4.0,2.082,2.082,8.046,7.156
709.0,11220290.455,-1.6,1.601,2.9,4.0,2.087,2.08,8.06,7.15
710.0,11235569.553,-1.6,1.601,2.9,4.0,2.083,2.08,8.05,7.144
711.0,11250806.985,-1.6,1.601,2.9,4.0,2.084,2.081,8.05,7.151
712.0,11266044.787,-1.6,1.601,2.9,4.0,2.086,2.079,8.056,7.145
713.0,11281276.42,-1.6,1.601,2.9,4.0,2.083,2.081,8.046,7.15
714.0,11296507.501,-1.6,1.601,2.9,4.0,2.085,2.082,8.054,7.154
715.0,11311740.93,-1.6,1.601,2.9,4.0,2.086,2.085,8.057,7.166
716.0,11326931.089,-1.6,1.601,2.9,4.0,2.09,2.09,8.07,7.186
717.0,11342159.645,-1.6,1.601,2.9,4.0,2.094,2.08,8.084,7.149
718.0,11357386.163,-1.6,1.601,2.9,4.0,2.084,2.081,8.049,7.153
719.0,11372613.426,-1.6,1.601,2.9,4.0,2.085,2.083,8.053,7.161
720.0,11387814.907,-1.6,1.601,2.9,4.0,2.087,2.084,8.062,7.166
721.0,11403021.231,-1.6,1.601,2.9,4.0,2.088,2.078,8.062,7.142
722.0,11418193.488,-1.6,1.601,2.9,4.0,2.081,2.077,8.039,7.136
723.0,11433406.835,-1.6,1.601,2.9,4.0,2.082,2.076,8.044,7.132
724.0,11448668.845,-1.6,1.601,2.9,4.0,2.08,2.076,8.037,7.135
725.0,11463903.746,-1.6,1.601,2.9,4.0,2.08,2.077,8.039,7.137
726.0,11479140.426,-2.823,1.601,2.9,4.0,2.077,2.044,8.022,7.01
727.0,11494466.269,-1.6,1.601,2.9,4.0,2.049,2.049,7.931,7.033
728.0,11509758.694,-1.599,1.601,2.9,4.0,2.051,2.034,7.939,6.969
729.0,11525136.411,-1.6,1.601,2.9,4.0,2.039,2.055,7.897,7.044
730.0,11540368.032,-1.6,1.601,2.9,4.0,2.062,2.068,7.976,7.105
731.0,11555567.017,-1.6,1.601,2.9,4.0,2.073,2.065,8.012,7.094
732.0,11570773.135,-1.6,1.601,2.9,4.0,2.07,2.072,8.002,7.122
733.0,11585961.092,-1.6,1.601,2.9,4.0,2.076,2.069,8.022,7.108
734.0,11601205.48,-1.6,1.601,2.9,4.0,2.072,2.065,8.008,7.093
735.0,11616467.812,-1.6,1.601,2.9,4.0,2.069,2.063,7.998,7.084
736.0,11631707.276,-1.6,1.601,2.9,4.0,2.067,2.066,7.992,7.097
737.0,11646910.079,-1.6,1.601,2.9,4.0,2.07,2.069,8.002,7.107
738.0,11662113.826,-1.6,1.601,2.9,4.0,2.073,2.074,8.013,7.13
739.0,11677271.791,-1.6,1.601,2.9,4.0,2.078,2.061,8.028,7.079
740.0,11692537.681,-1.6,1.601,2.9,4.0,2.064,2.061,7.982,7.077
741.0,11699471.903,-1.6,1.601,2.9,4.0,1.391,1.423,5.287,4.767
742.0,11714868.009,-1.6,1.601,2.9,4.0,2.098,2.067,8.111,7.1
743.0,11730069.91,-2.401,1.601,2.9,4.0,2.072,2.069,8.008,7.106
744.0,11745251.469,-1.6,1.601,2.9,4.0,2.073,2.068,8.011,7.105
745.0,11760462.369,-1.6,1.601,2.9,4.0,2.073,2.068,8.01,7.106
746.0,11775672.425,-1.6,1.601,2.9,4.0,2.072,2.072,8.009,7.124
747.0,11790874.773,-1.6,1.601,2.9,4.0,2.075,2.069,8.02,7.107
748.0,11805997.49,-1.6,1.601,2.9,4.0,2.073,2.065,8.009,7.095
749.0,11821166.242,-1.6,1.601,2.9,4.0,2.07,2.07,8.0,7.115
750.0,11836347.076,-1.629,1.601,2.9,4.0,2.074,2.067,8.014,7.102
751.0,11851546.382,-1.6,1.601,2.9,4.0,2.071,2.075,8.006,7.131
752.0,11866696.71,-1.6,1.601,2.9,4.0,2.078,2.069,8.029,7.11
753.0,11881858.755,-1.6,1.601,2.9,4.001,2.074,2.072,8.014,7.123
754.0,11897023.05,-1.6,1.601,2.9,4.0,2.075,2.07,8.019,7.114
755.0,11912190.654,-1.61,1.601,2.9,4.0,2.074,2.069,8.013,7.112
756.0,11919156.029,-1.6,1.601,2.9,4.0,1.401,1.427,5.323,4.782
757.0,11934457.772,-1.6,1.601,2.9,4.0,2.099,2.064,8.112,7.092
758.0,11949609.081,-1.6,1.601,2.9,4.0,2.069,2.062,7.998,7.088
759.0,11964814.725,-1.6,1.601,2.9,4.0,2.066,2.063,7.987,7.088
760.0,11979980.67,-1.6,1.601,2.9,4.0,2.067,2.064,7.989,7.092
761.0,11995128.182,-1.6,1.601,2.9,4.0,2.068,2.065,7.994,7.094
762.0,12010283.962,-4.165,1.601,2.9,4.0,2.069,2.061,7.996,7.078
763.0,12025376.949,-1.6,1.601,2.9,4.0,2.065,2.061,7.981,7.078
764.0,12040500.978,-1.6,1.601,2.9,4.0,2.065,2.062,7.984,7.081
765.0,12055659.054,-1.6,1.601,2.9,4.0,2.066,2.064,7.986,7.093
766.0,12070818.971,-1.6,1.601,2.9,4.0,2.068,2.065,7.994,7.096
767.0,12085911.218,-1.6,1.601,2.9,4.0,2.069,2.064,7.994,7.092
768.0,12101032.863,-1.6,1.601,2.9,4.0,2.068,2.06,7.992,7.08
769.0,12116199.966,-1.6,1.601,2.9,4.0,2.063,2.052,7.976,7.046
770.0,12131329.158,-1.6,1.601,2.9,4.0,2.056,2.056,7.952,7.062
771.0,12146459.041,-1.6,1.601,2.9,4.0,2.061,2.061,7.969,7.081
772.0,12161552.558,-1.6,1.601,2.9,4.0,2.065,2.061,7.983,7.08
773.0,12176638.837,-1.6,1.601,2.9,4.0,2.065,2.061,7.98,7.084
774.0,12191749.285,-1.6,1.601,2.9,4.0,2.066,2.063,7.984,7.089
775.0,12206923.712,-1.6,1.601,2.9,4.0,2.065,2.05,7.981,7.038
776.0,12222073.311,-1.6,1.601,2.9,4.0,2.054,2.05,7.946,7.041
777.0,12237196.559,-1.6,1.601,2.9,4.0,2.054,2.045,7.945,7.022
778.0,12252324.279,-1.6,1.601,2.9,4.0,2.049,2.047,7.928,7.029
779.0,12267434.388,-2.275,1.601,2.9,4.0,2.051,2.047,7.934,7.03
780.0,12282544.782,-2.281,1.601,2.9,4.0,2.05,2.038,7.932,6.994
781.0,12297723.628,-1.6,1.601,2.9,4.0,2.042,2.04,7.907,7.001
782.0,12312822.7,-1.6,1.601,2.9,4.0,2.046,2.049,7.917,7.037
783.0,12327915.236,-1.6,1.601,2.9,4.0,2.054,2.057,7.944,7.07
784.0,12343016.999,-1.6,1.601,2.9,4.0,2.06,2.05,7.962,7.039
785.0,12358083.055,-1.6,1.601,2.9,4.0,2.055,2.049,7.946,7.039
786.0,12359850.882,1.6,1.601,3.414,3.834,0.786,0.0,2.921,0.0