File: Li-ion_Batteries/UL-PUR_R20-NA8_18650_NCA_23C_2.5-96.5_0.5-0.5C_h_cycle_data.csv
Cycle_Index,Test_Time (s),Min_Current (A),Max_Current (A),Min_Voltage (V),Max_Voltage (V),Charge_Capacity (Ah),Discharge_Capacity (Ah),Charge_Energy (Wh),Discharge_Energy (Wh)
1.0,63530.021,-1.599,1.6,2.9,4.163,0.02,3.124,0.083,11.109
2.0,79048.845,-1.599,1.6,2.9,4.0,2.587,2.584,9.804,9.026
3.0,94590.193,-1.599,1.6,2.9,4.0,2.58,2.577,9.778,8.999
4.0,110134.903,-1.599,1.6,2.9,4.0,2.574,2.574,9.759,8.986
5.0,125681.548,-1.599,1.6,2.9,4.0,2.572,2.575,9.751,8.992
6.0,141287.211,-1.599,1.6,2.9,4.0,2.573,2.571,9.753,8.976
7.0,156842.242,-1.6,1.6,2.9,4.0,2.569,2.568,9.742,8.961
8.0,172391.751,-1.599,1.6,2.9,4.0,2.567,2.565,9.733,8.952
9.0,187919.336,-1.599,1.6,2.9,4.0,2.563,2.56,9.722,8.933
10.0,203451.398,-1.599,1.6,2.9,4.0,2.559,2.561,9.706,8.939
11.0,219011.179,-1.599,1.6,2.9,4.0,2.56,2.564,9.71,8.945
12.0,234554.598,-1.599,1.6,2.9,4.0,2.563,2.554,9.719,8.912
13.0,250097.587,-1.599,1.6,2.9,4.0,2.553,2.552,9.686,8.901
14.0,265626.201,-1.599,1.6,2.9,4.0,2.551,2.559,9.681,8.929
15.0,281174.824,-1.599,1.6,2.9,4.0,2.558,2.56,9.702,8.929
16.0,296719.345,-1.599,1.6,2.896,4.0,2.559,2.557,9.704,8.919
17.0,312246.162,-1.599,1.6,2.9,4.0,2.557,2.556,9.697,8.914
18.0,327812.506,-1.599,1.6,2.9,4.0,2.554,2.549,9.688,8.89
19.0,343350.072,-1.599,1.6,2.9,4.0,2.549,2.554,9.671,8.905
20.0,358891.369,-1.599,1.6,2.9,4.0,2.553,2.553,9.686,8.902
21.0,374421.908,-1.599,1.6,2.9,4.0,2.552,2.549,9.68,8.887
22.0,389955.142,-1.599,1.6,2.9,4.0,2.548,2.547,9.669,8.883
23.0,405523.717,-1.599,1.6,2.9,4.0,2.545,2.542,9.661,8.863
24.0,421053.706,-1.599,1.6,2.9,4.0,2.543,2.564,9.651,8.941
25.0,436593.658,-1.599,1.6,2.9,4.0,2.563,2.566,9.719,8.949
26.0,452060.866,-1.599,1.6,2.9,4.0,2.565,2.542,9.724,8.864
27.0,467579.451,-1.599,1.6,2.9,4.0,2.541,2.546,9.643,8.873
28.0,483139.37,-1.599,1.6,2.9,4.0,2.544,2.548,9.656,8.881
29.0,498701.602,-1.599,1.6,2.9,4.0,2.547,2.541,9.666,8.854
30.0,514226.108,-1.599,1.6,2.9,4.0,2.541,2.543,9.644,8.861
31.0,529799.246,-1.599,1.6,2.899,4.0,2.542,2.548,9.649,8.879
32.0,545358.681,-1.599,1.6,2.9,4.0,2.547,2.544,9.667,8.861
33.0,560911.0,-1.599,1.6,2.9,4.0,2.543,2.543,9.65,8.859
34.0,576436.336,-1.599,1.6,2.9,4.0,2.542,2.536,9.649,8.837
35.0,592037.53,-1.599,1.6,2.9,4.0,2.535,2.533,9.626,8.826
36.0,607590.236,-1.599,1.6,2.9,4.0,2.532,2.534,9.616,8.827
37.0,623193.312,-1.599,1.6,2.9,4.0,2.535,2.529,9.628,8.812
38.0,638729.439,-1.599,1.6,2.9,4.0,2.526,2.532,9.594,8.817
39.0,654286.403,-1.599,1.6,2.9,4.0,2.531,2.529,9.613,8.808
40.0,669848.058,-1.599,1.6,2.9,4.0,2.528,2.524,9.602,8.788
41.0,685412.094,-1.599,1.6,2.9,4.0,2.523,2.529,9.587,8.807
42.0,700975.613,-1.599,1.6,2.9,4.0,2.528,2.524,9.603,8.787
43.0,716534.169,-1.599,1.6,2.9,4.0,2.523,2.528,9.584,8.8
44.0,732100.074,-1.599,1.6,2.9,4.0,2.527,2.527,9.601,8.797
45.0,747672.273,-1.599,1.6,2.9,4.0,2.526,2.534,9.597,8.823
46.0,763233.691,-1.599,1.6,2.9,4.0,2.533,2.529,9.619,8.805
47.0,778819.968,-1.599,1.6,2.9,4.0,2.529,2.531,9.605,8.809
48.0,794376.643,-1.6,1.6,2.9,4.0,2.53,2.537,9.609,8.831
49.0,809956.853,-1.6,1.6,2.9,4.0,2.536,2.537,9.629,8.832
50.0,825500.427,-1.599,1.6,2.9,4.0,2.536,2.529,9.629,8.806
51.0,841062.451,-1.599,1.6,2.9,4.0,2.528,2.523,9.602,8.782
52.0,850601.726,-1.599,1.6,2.9,4.0,1.983,1.989,7.425,6.788
53.0,866215.381,-1.599,1.6,2.9,4.0,2.526,2.524,9.599,8.783
54.0,881807.834,-1.599,1.6,2.9,4.0,2.523,2.524,9.587,8.782
55.0,897399.624,-1.599,1.6,2.9,4.0,2.523,2.521,9.586,8.774
56.0,912997.108,-1.6,1.6,2.9,4.0,2.521,2.52,9.579,8.769
57.0,928593.155,-1.6,1.6,2.9,4.0,2.519,2.515,9.573,8.751
58.0,944194.681,-1.599,1.6,2.9,4.0,2.514,2.515,9.558,8.75
59.0,959783.464,-1.599,1.6,2.9,4.0,2.515,2.516,9.56,8.753
60.0,975375.587,-1.599,1.6,2.9,4.0,2.515,2.512,9.56,8.738
61.0,990959.008,-1.599,1.6,2.9,4.0,2.511,2.514,9.549,8.745
62.0,1006557.871,-1.6,1.6,2.9,4.0,2.513,2.512,9.553,8.735
63.0,1015989.242,-1.599,1.6,2.9,4.0,1.96,1.963,7.344,6.692
64.0,1031637.135,-1.599,1.6,2.9,4.0,2.511,2.509,9.55,8.725
65.0,1047252.775,-1.599,1.6,2.9,4.0,2.509,2.51,9.539,8.73
66.0,1062857.335,-1.6,1.6,2.9,4.0,2.509,2.505,9.542,8.712
67.0,1078439.54,-1.599,1.6,2.9,4.0,2.505,2.508,9.526,8.72
68.0,1094057.359,-1.599,1.6,2.9,4.0,2.506,2.506,9.531,8.711
69.0,1109679.082,-1.599,1.6,2.9,4.0,2.505,2.501,9.526,8.693
70.0,1125299.123,-1.599,1.6,2.9,4.0,2.5,2.504,9.51,8.704
71.0,1140901.477,-1.599,1.6,2.9,4.0,2.503,2.502,9.521,8.699
72.0,1156565.098,-1.599,1.6,2.9,4.0,2.501,2.504,9.516,8.705
73.0,1172209.884,-1.599,1.6,2.9,4.0,2.502,2.5,9.52,8.691
74.0,1187827.904,-1.599,1.6,2.9,4.0,2.499,2.499,9.509,8.686
75.0,1203473.132,-1.6,1.6,2.9,4.0,2.497,2.499,9.502,8.684
76.0,1219105.16,-1.599,1.6,2.9,4.0,2.498,2.499,9.504,8.683
77.0,1234705.607,-1.599,1.6,2.9,4.0,2.497,2.495,9.497,8.669
78.0,1250347.87,-1.599,1.6,2.9,4.0,2.494,2.496,9.492,8.675
79.0,1266000.755,-1.599,1.6,2.9,4.0,2.496,2.496,9.496,8.674
80.0,1281639.444,-1.599,1.6,2.9,4.0,2.495,2.493,9.495,8.663
81.0,1297300.915,-1.599,1.6,2.9,4.0,2.493,2.493,9.486,8.663
82.0,1306585.596,-1.599,1.6,2.9,4.0,1.926,1.932,7.221,6.577
83.0,1322292.373,-1.599,1.6,2.894,4.0,2.496,2.49,9.499,8.65
84.0,1337947.253,-1.599,1.6,2.9,4.0,2.489,2.491,9.475,8.653
85.0,1353610.217,-1.599,1.6,2.895,4.0,2.49,2.49,9.477,8.649
86.0,1362871.214,-1.599,1.6,2.9,4.0,1.921,1.927,7.201,6.558
87.0,1378582.863,-1.599,1.6,2.9,4.0,2.493,2.482,9.49,8.62
88.0,1394296.616,-1.599,1.6,2.9,4.0,2.481,2.485,9.45,8.63
89.0,1403530.836,-1.599,1.6,2.9,4.0,1.913,1.923,7.171,6.542
90.0,1419294.598,-1.599,1.6,2.9,4.0,2.493,2.487,9.491,8.637
91.0,1434969.236,-1.599,1.6,2.9,4.0,2.487,2.485,9.467,8.627
92.0,1450660.412,-1.599,1.6,2.9,4.0,2.483,2.484,9.456,8.625
93.0,1466320.823,-1.599,1.6,2.9,4.0,2.483,2.478,9.455,8.602
94.0,1482040.42,-1.599,1.6,2.9,4.0,2.477,2.486,9.434,8.632
95.0,1497738.837,-1.599,1.6,2.9,4.0,2.485,2.48,9.463,8.612
96.0,1513444.027,-1.599,1.6,2.9,4.0,2.479,2.486,9.442,8.631
97.0,1529120.034,-1.599,1.6,2.9,4.0,2.485,2.478,9.461,8.602
98.0,1544828.874,-1.599,1.6,2.9,4.0,2.476,2.483,9.431,8.619
99.0,1560571.061,-1.599,1.6,2.9,4.0,2.481,2.478,9.45,8.604
100.0,1576269.592,-1.599,1.6,2.9,4.0,2.477,2.477,9.434,8.598
101.0,1591983.278,-1.599,1.6,2.9,4.0,2.475,2.474,9.429,8.588
102.0,1607669.373,-1.599,1.6,2.9,4.0,2.473,2.476,9.422,8.595
103.0,1616836.244,-1.599,1.6,2.9,4.0,1.898,1.908,7.118,6.486
104.0,1632579.982,-1.599,1.6,2.9,4.0,2.482,2.473,9.454,8.581
105.0,1648283.73,-1.599,1.6,2.9,4.0,2.472,2.47,9.418,8.573
106.0,1657373.317,-1.599,1.6,2.9,4.0,1.883,1.888,7.066,6.415
107.0,1673148.559,-1.599,1.6,2.9,4.0,2.471,2.464,9.418,8.548
108.0,1688872.588,-1.599,1.6,2.9,4.0,2.463,2.467,9.387,8.557
109.0,1704639.099,-1.599,1.6,2.9,4.0,2.466,2.472,9.396,8.577
110.0,1720384.514,-1.599,1.6,2.9,4.0,2.471,2.468,9.415,8.563
111.0,1736094.57,-1.599,1.6,2.9,4.0,2.467,2.468,9.4,8.563
112.0,1745183.573,-1.599,1.6,2.9,4.0,1.882,1.89,7.058,6.42
113.0,1760969.02,-1.599,1.6,2.9,4.0,2.473,2.463,9.424,8.543
114.0,1776728.075,-1.599,1.6,2.9,4.0,2.462,2.472,9.385,8.577
115.0,1792424.823,-1.599,1.6,2.9,4.0,2.471,2.469,9.412,8.566
116.0,1808177.998,-1.599,1.6,2.9,4.0,2.468,2.465,9.404,8.551
117.0,1823941.905,-1.599,1.6,2.9,4.0,2.464,2.461,9.389,8.538
118.0,1839667.96,-1.599,1.6,2.9,4.0,2.46,2.454,9.372,8.512
119.0,1855400.154,-1.6,1.6,2.9,4.0,2.453,2.454,9.351,8.511
120.0,1871106.813,-1.599,1.6,2.9,4.0,2.454,2.463,9.354,8.544
121.0,1886859.465,-1.599,1.6,2.9,4.0,2.462,2.464,9.382,8.548
122.0,1902589.76,-1.599,1.6,2.9,4.0,2.463,2.467,9.386,8.558
123.0,1918329.929,-1.6,1.6,2.9,4.0,2.466,2.462,9.393,8.542
124.0,1934075.893,-1.599,1.6,2.9,4.0,2.461,2.462,9.38,8.541
125.0,1943127.053,-1.599,1.6,2.9,4.0,1.877,1.88,7.041,6.387
126.0,1958945.67,-1.6,1.6,2.9,4.0,2.465,2.456,9.397,8.519
127.0,1974693.594,-1.599,1.6,2.9,4.0,2.455,2.451,9.359,8.5
128.0,1983695.41,-1.6,1.6,2.9,4.0,1.858,1.874,6.975,6.363
129.0,1999509.657,-1.599,1.6,2.9,4.0,2.464,2.454,9.393,8.511
130.0,2015267.532,-1.6,1.6,2.9,4.0,2.453,2.453,9.353,8.509
131.0,2024245.175,-1.599,1.6,2.9,4.0,1.857,1.865,6.969,6.329
132.0,2040005.78,-1.599,1.6,2.9,4.0,2.458,2.458,9.372,8.523
133.0,2055801.731,-1.6,1.6,2.9,4.0,2.457,2.446,9.368,8.486
134.0,2071557.88,-1.6,1.6,2.9,4.0,2.445,2.442,9.325,8.466
135.0,2087307.349,-1.599,1.6,2.9,4.0,2.44,2.445,9.308,8.476
136.0,2103064.852,-1.599,1.6,2.9,4.0,2.443,2.444,9.319,8.476
137.0,2118836.297,-1.599,1.6,2.9,4.0,2.444,2.446,9.32,8.485
138.0,2134630.734,-1.6,1.6,2.9,4.0,2.446,2.459,9.326,8.527
139.0,2150350.631,-1.6,1.6,2.9,4.0,2.458,2.456,9.366,8.52
140.0,2166138.539,-1.599,1.6,2.9,4.0,2.454,2.446,9.356,8.482
141.0,2181908.027,-1.599,1.6,2.9,4.0,2.445,2.437,9.324,8.448
142.0,2197673.528,-1.599,1.6,2.9,4.0,2.435,2.433,9.291,8.435
143.0,2213468.117,-1.599,1.6,2.9,4.0,2.433,2.45,9.284,8.496
144.0,2229227.879,-1.6,1.6,2.9,4.0,2.449,2.448,9.337,8.491
145.0,2244983.943,-1.599,1.6,2.9,4.0,2.447,2.442,9.329,8.468
146.0,2260722.39,-1.599,1.601,2.9,4.0,2.441,2.438,9.309,8.453
147.0,2276489.047,-1.599,1.6,2.9,4.0,2.437,2.435,9.296,8.44
148.0,2292248.099,-1.599,1.6,2.9,4.0,2.433,2.441,9.284,8.464
149.0,2308012.121,-1.599,1.6,2.9,4.0,2.44,2.426,9.303,8.41
150.0,2323799.667,-1.599,1.6,2.9,4.0,2.425,2.428,9.256,8.416
151.0,2339561.519,-1.599,1.6,2.9,4.0,2.427,2.428,9.262,8.417
152.0,2355310.821,-1.599,1.6,2.9,4.0,2.427,2.425,9.262,8.403
153.0,2371064.658,-1.599,1.6,2.9,4.0,2.423,2.411,9.248,8.352
154.0,2386820.015,-1.599,1.6,2.9,4.0,2.411,2.433,9.208,8.435
155.0,2395719.142,-1.599,1.6,2.9,4.0,1.836,1.851,6.893,6.282
156.0,2411525.858,-1.599,1.6,2.9,4.0,2.446,2.433,9.324,8.434
157.0,2427287.519,-1.6,1.6,2.9,4.0,2.432,2.429,9.278,8.42
158.0,2442968.113,-1.599,1.6,2.9,4.0,2.428,2.428,9.264,8.416
159.0,2458738.861,-1.6,1.6,2.9,4.0,2.426,2.423,9.259,8.396
160.0,2474517.363,-1.599,1.6,2.9,4.0,2.422,2.423,9.244,8.397
161.0,2490287.628,-1.599,1.6,2.9,4.0,2.422,2.423,9.246,8.398
162.0,2499086.054,-1.6,1.6,2.9,4.0,1.816,1.826,6.821,6.192
163.0,2514963.372,-1.599,1.6,2.9,4.0,2.429,2.418,9.275,8.377
164.0,2530756.188,-1.6,1.601,2.9,4.0,2.418,2.422,9.232,8.391
165.0,2546534.925,-1.6,1.6,2.9,4.0,2.421,2.422,9.239,8.391
166.0,2562320.943,-1.599,1.6,2.9,4.0,2.42,2.414,9.238,8.364
167.0,2578088.76,-1.599,1.6,2.9,4.0,2.413,2.415,9.214,8.365
168.0,2593862.611,-1.599,1.6,2.9,4.0,2.413,2.411,9.214,8.351
169.0,2609653.16,-1.599,1.6,2.893,4.0,2.409,2.409,9.201,8.343
170.0,2625430.453,-1.6,1.6,2.9,4.0,2.408,2.415,9.196,8.366
171.0,2641179.953,-1.6,1.6,2.9,4.0,2.414,2.423,9.217,8.396
172.0,2656977.519,-1.6,1.6,2.9,4.0,2.423,2.43,9.246,8.421
173.0,2672734.931,-1.599,1.6,2.9,4.0,2.429,2.419,9.264,8.384
174.0,2681498.778,-1.599,1.6,2.9,4.0,1.809,1.818,6.795,6.162
175.0,2697354.266,-1.599,1.6,2.9,4.0,2.423,2.406,9.254,8.333
176.0,2713138.09,-1.599,1.6,2.9,4.0,2.405,2.404,9.186,8.326
177.0,2728920.063,-1.6,1.6,2.9,4.0,2.404,2.416,9.182,8.369
178.0,2744690.791,-1.599,1.6,2.9,4.0,2.415,2.422,9.22,8.393
179.0,2760441.594,-1.599,1.6,2.9,4.0,2.42,2.417,9.237,8.376
180.0,2776187.733,-1.6,1.6,2.9,4.0,2.416,2.415,9.222,8.367
181.0,2791942.866,-1.599,1.6,2.9,4.0,2.413,2.407,9.213,8.34
182.0,2807741.42,-1.6,1.6,2.9,4.0,2.406,2.411,9.188,8.348
183.0,2823511.198,-1.599,1.6,2.9,4.0,2.41,2.412,9.202,8.355
184.0,2832274.584,-1.599,1.6,2.9,4.0,1.806,1.821,6.786,6.172
185.0,2848127.389,-1.599,1.6,2.9,4.0,2.423,2.41,9.252,8.351
186.0,2863909.544,-1.599,1.6,2.9,4.0,2.41,2.411,9.202,8.354
187.0,2879681.38,-1.599,1.601,2.9,4.0,2.409,2.395,9.199,8.292
188.0,2895541.437,-1.599,1.6,2.9,4.0,2.393,2.39,9.144,8.274
189.0,2911345.861,-1.599,1.6,2.9,4.0,2.387,2.373,9.126,8.213
190.0,2927158.547,-1.599,1.6,2.895,4.0,2.374,2.389,9.079,8.27
191.0,2942949.038,-1.599,1.6,2.9,4.0,2.388,2.388,9.126,8.267
192.0,2958768.733,-1.599,1.6,2.9,4.0,2.387,2.395,9.123,8.293
193.0,2974530.255,-1.599,1.6,2.9,4.0,2.394,2.394,9.145,8.29
194.0,2990256.897,-1.599,1.6,2.898,4.0,2.393,2.392,9.143,8.286
195.0,3006022.1,-1.599,1.6,2.9,4.0,2.392,2.395,9.139,8.297
196.0,3021788.718,-1.599,1.6,2.9,4.0,2.394,2.386,9.145,8.261
197.0,3037649.079,-1.6,1.6,2.9,4.0,2.385,2.415,9.117,8.365
198.0,3053516.784,-1.599,1.6,2.9,4.0,2.413,2.392,9.216,8.282
199.0,3069288.128,-1.599,1.6,2.9,4.0,2.391,2.389,9.136,8.274
200.0,3085063.991,-1.599,1.6,2.9,4.0,2.387,2.388,9.123,8.267
201.0,3100832.982,-1.599,1.6,2.9,4.0,2.387,2.385,9.121,8.259
202.0,3116585.825,-1.599,1.6,2.9,4.0,2.384,2.379,9.112,8.236
203.0,3132400.001,-1.599,1.6,2.9,4.0,2.377,2.383,9.091,8.251
204.0,3148173.308,-1.599,1.6,2.9,4.0,2.383,2.386,9.108,8.262
205.0,3163956.938,-1.599,1.6,2.9,4.0,2.385,2.387,9.115,8.259
206.0,3179717.874,-1.599,1.6,2.9,4.0,2.387,2.395,9.122,8.295
207.0,3195455.733,-1.599,1.6,2.9,4.0,2.394,2.392,9.144,8.283
208.0,3211206.319,-1.6,1.6,2.9,4.0,2.391,2.39,9.133,8.279
209.0,3227013.928,-1.6,1.6,2.9,4.0,2.389,2.395,9.13,8.297
210.0,3242748.447,-1.599,1.6,2.9,4.0,2.395,2.399,9.147,8.31
211.0,3258477.891,-1.599,1.6,2.9,4.0,2.397,2.389,9.156,8.275
212.0,3274250.34,-1.6,1.6,2.9,4.0,2.388,2.389,9.123,8.274
213.0,3289986.108,-1.6,1.6,2.9,4.0,2.388,2.392,9.123,8.287
214.0,3305729.216,-1.599,1.6,2.9,4.0,2.391,2.384,9.133,8.258
215.0,3321493.27,-1.599,1.6,2.9,4.0,2.383,2.38,9.107,8.241
216.0,3337255.517,-1.6,1.6,2.9,4.0,2.38,2.384,9.095,8.258
217.0,3352963.288,-1.599,1.6,2.9,4.0,2.383,2.385,9.108,8.254
218.0,3368726.587,-1.599,1.6,2.9,4.0,2.383,2.379,9.108,8.235
219.0,3384491.79,-1.599,1.6,2.9,4.0,2.377,2.37,9.087,8.206
220.0,3400264.791,-1.599,1.6,2.9,4.0,2.369,2.36,9.059,8.167
221.0,3416051.364,-1.599,1.6,2.9,4.0,2.36,2.369,9.029,8.201
222.0,3431806.334,-1.599,1.6,2.9,4.0,2.368,2.368,9.055,8.194
223.0,3447539.852,-1.599,1.6,2.9,4.0,2.367,2.368,9.053,8.197
224.0,3463292.292,-1.599,1.6,2.9,4.0,2.366,2.36,9.049,8.168
225.0,3479056.108,-1.599,1.6,2.9,4.0,2.359,2.358,9.025,8.158
226.0,3494822.043,-1.599,1.6,2.9,4.0,2.357,2.366,9.019,8.189
227.0,3510569.192,-1.599,1.6,2.9,4.0,2.365,2.367,9.046,8.192
228.0,3526277.515,-1.599,1.6,2.9,4.0,2.366,2.364,9.048,8.183
229.0,3542016.616,-1.599,1.6,2.9,4.0,2.363,2.363,9.04,8.18
230.0,3557773.104,-1.599,1.6,2.9,4.0,2.362,2.361,9.035,8.169
231.0,3573537.008,-1.6,1.6,2.9,4.0,2.359,2.357,9.026,8.157
232.0,3589337.896,-1.599,1.6,2.9,4.0,2.356,2.363,9.016,8.178
233.0,3605085.866,-1.599,1.6,2.9,4.0,2.362,2.36,9.034,8.167
234.0,3620876.546,-1.599,1.6,2.9,4.0,2.359,2.365,9.026,8.186
235.0,3636587.149,-1.6,1.6,2.9,4.0,2.368,2.366,9.043,8.192
236.0,3652301.25,-1.599,1.6,2.9,4.0,2.365,2.365,9.044,8.186
237.0,3668041.232,-1.6,1.6,2.9,4.0,2.364,2.364,9.039,8.182
238.0,3683779.958,-1.6,1.6,2.9,4.0,2.363,2.363,9.038,8.178
239.0,3699551.034,-1.599,1.6,2.899,4.0,2.361,2.363,9.032,8.175
240.0,3715308.59,-1.599,1.6,2.893,4.0,2.362,2.363,9.034,8.18
241.0,3731047.153,-1.599,1.6,2.9,4.0,2.362,2.364,9.035,8.181
242.0,3746801.18,-1.599,1.6,2.9,4.0,2.363,2.362,9.036,8.175
243.0,3762543.966,-1.6,1.6,2.9,4.0,2.361,2.361,9.03,8.172
244.0,3770989.568,-1.599,1.6,2.9,4.0,1.737,1.749,6.533,5.919
245.0,3786824.188,-1.599,1.6,2.9,4.0,2.369,2.353,9.065,8.14
246.0,3802575.849,-1.6,1.6,2.9,4.0,2.353,2.361,9.002,8.171
247.0,3818296.075,-1.599,1.6,2.9,4.0,2.36,2.359,9.025,8.163
248.0,3834020.731,-1.599,1.6,2.9,4.0,2.358,2.36,9.021,8.17
249.0,3849785.367,-1.599,1.6,2.9,4.0,2.36,2.357,9.026,8.157
250.0,3865615.514,-1.599,1.6,2.9,4.0,2.354,2.341,9.011,8.096
251.0,3881380.264,-1.599,1.6,2.9,4.0,2.341,2.356,8.961,8.153
252.0,3897093.443,-1.599,1.6,2.9,4.0,2.355,2.357,9.009,8.156
253.0,3912795.51,-1.599,1.6,2.899,4.0,2.355,2.345,9.01,8.114
254.0,3928541.511,-1.599,1.6,2.9,4.0,2.344,2.35,8.974,8.132
255.0,3944306.208,-1.599,1.6,2.899,4.0,2.349,2.344,8.989,8.113
256.0,3960031.084,-1.599,1.6,2.9,4.0,2.343,2.348,8.968,8.124
257.0,3975761.712,-1.6,1.6,2.9,4.0,2.348,2.358,8.982,8.156
258.0,3991486.027,-1.599,1.6,2.9,4.0,2.356,2.348,9.013,8.126
259.0,3999859.726,-1.599,1.6,2.9,4.0,1.72,1.734,6.473,5.865
260.0,4015673.74,-1.599,1.6,2.9,4.0,2.358,2.32,9.027,8.038
261.0,4031334.583,-1.599,1.6,2.9,4.0,2.321,2.342,8.887,8.103
262.0,4047075.999,-1.599,1.6,2.9,4.0,2.341,2.348,8.962,8.123
263.0,4062861.264,-1.599,1.6,2.9,4.0,2.346,2.332,8.98,8.067
264.0,4078613.517,-1.599,1.6,2.9,4.0,2.331,2.326,8.926,8.045
265.0,4094376.869,-1.599,1.6,2.9,4.0,2.325,2.32,8.907,8.02
266.0,4110161.921,-1.599,1.6,2.9,4.0,2.319,2.324,8.888,8.037
267.0,4125941.383,-1.599,1.6,2.9,4.0,2.323,2.332,8.902,8.062
268.0,4141709.629,-1.599,1.6,2.9,4.0,2.331,2.327,8.927,8.049
269.0,4157464.848,-1.599,1.6,2.9,4.0,2.325,2.321,8.908,8.026
270.0,4173224.959,-1.599,1.6,2.898,4.0,2.32,2.315,8.889,8.004
271.0,4189003.861,-1.599,1.6,2.9,4.0,2.314,2.317,8.868,8.008
272.0,4204757.81,-1.599,1.6,2.9,4.0,2.316,2.327,8.876,8.046
273.0,4220506.588,-1.6,1.6,2.9,4.0,2.326,2.33,8.909,8.06
274.0,4236251.778,-1.599,1.6,2.9,4.0,2.328,2.321,8.917,8.027
275.0,4252015.735,-1.6,1.6,2.9,4.0,2.322,2.323,8.896,8.033
276.0,4267768.033,-1.599,1.6,2.9,4.0,2.32,2.315,8.89,8.004
277.0,4283522.659,-1.599,1.6,2.9,4.0,2.314,2.317,8.869,8.011
278.0,4299269.237,-1.599,1.6,2.9,4.0,2.317,2.319,8.877,8.018
279.0,4307461.132,-1.599,1.6,2.9,4.0,1.678,1.694,6.323,5.725
280.0,4323329.422,-1.599,1.6,2.9,4.0,2.331,2.31,8.935,7.984
281.0,4339095.787,-1.599,1.6,2.9,4.0,2.309,2.306,8.852,7.971
282.0,4347197.894,-1.599,1.6,2.9,4.0,1.657,1.675,6.247,5.657
283.0,4363113.831,-1.599,1.6,2.9,4.0,2.321,2.303,8.9,7.956
284.0,4378851.437,-1.599,1.6,2.9,4.0,2.303,2.305,8.831,7.964
285.0,4394625.324,-1.599,1.6,2.9,4.0,2.304,2.307,8.833,7.974
286.0,4410398.374,-1.599,1.6,2.9,4.0,2.306,2.307,8.84,7.973
287.0,4426173.135,-1.599,1.6,2.9,4.0,2.305,2.301,8.838,7.949
288.0,4441951.945,-1.599,1.6,2.9,4.0,2.299,2.296,8.817,7.931
289.0,4457688.895,-1.599,1.6,2.9,4.0,2.295,2.305,8.805,7.966
290.0,4473463.613,-1.599,1.6,2.9,4.0,2.305,2.306,8.837,7.971
291.0,4489204.273,-1.599,1.6,2.9,4.0,2.305,2.306,8.835,7.97
292.0,4504961.904,-1.599,1.6,2.9,4.0,2.305,2.301,8.835,7.951
293.0,4520723.879,-1.599,1.6,2.9,4.0,2.299,2.297,8.817,7.935
294.0,4536503.368,-1.599,1.6,2.9,4.0,2.296,2.305,8.806,7.968
295.0,4552274.285,-1.599,1.6,2.9,4.0,2.305,2.308,8.835,7.98
296.0,4568022.598,-1.599,1.6,2.9,4.0,2.308,2.312,8.845,7.993
297.0,4583763.731,-1.599,1.6,2.9,4.0,2.311,2.311,8.855,7.988
298.0,4599525.528,-1.599,1.6,2.9,4.0,2.308,2.296,8.848,7.934
299.0,4615288.659,-1.6,1.6,2.9,4.0,2.294,2.289,8.799,7.908
300.0,4631034.09,-1.599,1.6,2.9,4.0,2.288,2.299,8.78,7.943
301.0,4639131.159,-1.599,1.6,2.9,4.0,1.664,1.675,6.273,5.656
302.0,4655032.536,-1.599,1.6,2.9,4.0,2.315,2.3,8.88,7.948
303.0,4670773.769,-1.599,1.6,2.9,4.0,2.299,2.298,8.817,7.942
304.0,4686515.226,-1.599,1.6,2.9,4.0,2.297,2.294,8.807,7.926
305.0,4702270.615,-1.599,1.6,2.9,4.0,2.292,2.292,8.793,7.918
306.0,4717970.459,-1.599,1.6,2.9,4.0,2.291,2.296,8.789,7.935
307.0,4733695.55,-1.599,1.6,2.9,4.0,2.295,2.29,8.8,7.918
308.0,4749439.576,-1.599,1.6,2.9,4.0,2.289,2.297,8.779,7.938
309.0,4757518.46,-1.599,1.6,2.9,4.0,1.65,1.672,6.221,5.645
310.0,4773369.103,-1.599,1.6,2.9,4.0,2.316,2.297,8.879,7.937
311.0,4789101.306,-1.599,1.6,2.9,4.0,2.296,2.289,8.805,7.91
312.0,4797156.223,-1.599,1.6,2.9,4.0,1.64,1.672,6.185,5.645
313.0,4813013.967,-1.599,1.6,2.9,4.0,2.318,2.29,8.887,7.912
314.0,4828730.673,-1.599,1.6,2.9,4.0,2.289,2.295,8.778,7.929
315.0,4844495.302,-1.599,1.6,2.9,4.0,2.294,2.292,8.798,7.921
316.0,4860169.142,-1.599,1.6,2.9,4.0,2.291,2.29,8.787,7.914
317.0,4875906.182,-1.599,1.6,2.9,4.0,2.289,2.287,8.78,7.901
318.0,4891623.803,-1.599,1.6,2.9,4.0,2.285,2.286,8.767,7.897
319.0,4907413.204,-1.599,1.6,2.9,4.0,2.285,2.287,8.767,7.9
320.0,4923160.359,-1.599,1.6,2.9,4.0,2.286,2.286,8.768,7.898
321.0,4938905.951,-1.599,1.6,2.9,4.0,2.285,2.287,8.766,7.904
322.0,4954642.859,-1.599,1.6,2.9,4.0,2.286,2.287,8.77,7.903
323.0,4970351.583,-1.599,1.6,2.9,4.0,2.285,2.284,8.766,7.89
324.0,4986095.853,-1.6,1.6,2.9,4.0,2.283,2.28,8.757,7.873
325.0,5001825.019,-1.599,1.6,2.9,4.0,2.278,2.279,8.743,7.871
326.0,5017557.083,-1.599,1.6,2.9,4.0,2.278,2.282,8.741,7.884
327.0,5033281.743,-1.599,1.6,2.9,4.0,2.281,2.285,8.753,7.894
328.0,5048998.087,-1.599,1.6,2.9,4.0,2.284,2.288,8.76,7.906
329.0,5064690.758,-1.599,1.6,2.9,4.0,2.286,2.281,8.767,7.878
330.0,5080415.196,-1.599,1.6,2.9,4.0,2.279,2.281,8.745,7.881
331.0,5096112.09,-1.599,1.6,2.9,4.0,2.281,2.287,8.749,7.902
332.0,5111819.828,-1.599,1.6,2.9,4.0,2.285,2.287,8.765,7.902
333.0,5127539.588,-1.599,1.6,2.9,4.0,2.285,2.283,8.766,7.888
334.0,5143302.473,-1.599,1.6,2.9,4.0,2.282,2.288,8.755,7.904
335.0,5159020.885,-1.599,1.6,2.9,4.0,2.286,2.281,8.771,7.884
336.0,5174789.511,-1.599,1.6,2.9,4.0,2.28,2.281,8.747,7.878
337.0,5190521.364,-1.599,1.6,2.895,4.0,2.279,2.284,8.745,7.89
338.0,5206224.773,-1.599,1.6,2.893,4.0,2.283,2.278,8.756,7.872
339.0,5221955.334,-1.599,1.6,2.89,4.0,2.277,2.278,8.737,7.869
340.0,5237645.136,-1.599,1.6,2.9,4.0,2.277,2.285,8.737,7.894
341.0,5253344.772,-1.6,1.6,2.9,4.0,2.283,2.278,8.754,7.869
342.0,5269068.565,-1.599,1.6,2.9,4.0,2.278,2.282,8.74,7.885
343.0,5284733.634,-1.601,1.6,2.897,4.0,2.281,2.28,8.748,7.88
344.0,5300426.017,-1.599,1.601,2.9,4.0,2.279,2.277,8.742,7.867
345.0,5316162.469,-1.6,1.6,2.9,4.0,2.276,2.285,8.733,7.895
346.0,5331867.795,-1.599,1.6,2.9,4.0,2.283,2.277,8.758,7.867
347.0,5347597.69,-1.599,1.6,2.899,4.0,2.275,2.271,8.731,7.846
348.0,5363291.268,-1.599,1.6,2.9,4.0,2.27,2.274,8.713,7.858
349.0,5378987.635,-1.599,1.6,2.9,4.0,2.273,2.276,8.723,7.863
350.0,5394685.813,-1.599,1.6,2.9,4.0,2.275,2.271,8.729,7.847
351.0,5410330.374,-1.599,1.6,2.9,4.0,2.269,2.268,8.709,7.835
352.0,5426014.33,-1.599,1.6,2.9,4.0,2.267,2.271,8.704,7.847
353.0,5441723.92,-1.599,1.6,2.9,4.0,2.27,2.275,8.711,7.858
354.0,5457422.016,-1.599,1.6,2.9,4.0,2.275,2.286,8.727,7.905
355.0,5473043.037,-1.599,1.6,2.9,4.0,2.285,2.267,8.762,7.83
356.0,5488726.988,-1.6,1.6,2.9,4.0,2.265,2.272,8.694,7.848
357.0,5504413.403,-1.599,1.6,2.9,4.0,2.271,2.266,8.714,7.825
358.0,5520130.19,-1.599,1.6,2.9,4.0,2.264,2.266,8.692,7.827
359.0,5535789.102,-1.599,1.6,2.9,4.0,2.265,2.266,8.693,7.828
360.0,5551485.308,-1.599,1.6,2.9,4.0,2.266,2.271,8.697,7.845
361.0,5567186.863,-1.599,1.6,2.9,4.0,2.27,2.27,8.711,7.842
362.0,5582854.55,-1.6,1.6,2.9,4.0,2.268,2.263,8.704,7.818
363.0,5598518.855,-1.6,1.6,2.9,4.0,2.263,2.271,8.686,7.846
364.0,5614160.183,-1.6,1.6,2.9,4.0,2.27,2.27,8.711,7.843
365.0,5629837.543,-1.599,1.6,2.9,4.0,2.268,2.264,8.704,7.823
366.0,5645461.38,-1.599,1.6,2.9,4.0,2.263,2.272,8.685,7.848
367.0,5661111.938,-1.599,1.6,2.9,4.0,2.271,2.273,8.712,7.85
368.0,5676753.129,-1.6,1.6,2.9,4.0,2.273,2.264,8.718,7.823
369.0,5692414.244,-1.599,1.6,2.9,4.0,2.262,2.268,8.683,7.833
370.0,5708060.393,-1.599,1.6,2.9,4.0,2.267,2.268,8.698,7.836
371.0,5723725.262,-1.6,1.6,2.9,4.0,2.267,2.272,8.7,7.848
372.0,5739370.27,-1.599,1.6,2.9,4.0,2.271,2.27,8.711,7.844
373.0,5754963.012,-1.599,1.6,2.9,4.0,2.27,2.257,8.708,7.8
374.0,5770598.682,-1.6,1.6,2.9,4.0,2.255,2.259,8.656,7.8
375.0,5786264.786,-1.599,1.6,2.9,4.0,2.257,2.25,8.664,7.769
376.0,5801938.078,-1.599,1.6,2.9,4.0,2.249,2.247,8.637,7.757
377.0,5817616.09,-1.599,1.6,2.9,4.0,2.245,2.242,8.625,7.737
378.0,5833333.845,-1.599,1.6,2.9,4.0,2.24,2.244,8.609,7.747
379.0,5849010.271,-1.599,1.6,2.9,4.0,2.244,2.246,8.62,7.752
380.0,5864635.763,-1.599,1.6,2.9,4.0,2.245,2.248,8.625,7.76
381.0,5880265.931,-1.599,1.6,2.9,4.0,2.246,2.242,8.625,7.74
382.0,5895935.519,-1.599,1.6,2.9,4.0,2.24,2.237,8.608,7.721
383.0,5911612.901,-1.599,1.6,2.9,4.0,2.236,2.234,8.593,7.708
384.0,5919388.202,-1.599,1.6,2.9,4.0,1.575,1.613,5.949,5.436
385.0,5935231.678,-1.599,1.6,2.9,4.0,2.27,2.244,8.72,7.747
386.0,5950868.109,-1.599,1.6,2.9,4.0,2.244,2.247,8.621,7.757
387.0,5966492.68,-1.599,1.6,2.9,4.0,2.245,2.238,8.623,7.727
388.0,5982161.937,-1.599,1.6,2.893,4.0,2.236,2.23,8.594,7.693
389.0,5997853.65,-1.599,1.6,2.9,4.0,2.228,2.226,8.565,7.678
390.0,6013516.872,-1.599,1.6,2.9,4.0,2.226,2.241,8.561,7.735
391.0,6029171.468,-1.599,1.6,2.895,4.0,2.24,2.251,8.608,7.772
392.0,6044815.304,-1.599,1.6,2.9,4.0,2.249,2.245,8.639,7.751
393.0,6052622.495,-1.599,1.6,2.9,4.0,1.59,1.611,6.005,5.433
394.0,6068299.211,-1.599,1.6,2.9,4.0,2.262,2.235,8.692,7.715
395.0,6083961.298,-1.599,1.6,2.9,4.0,2.234,2.232,8.587,7.702
396.0,6099590.374,-1.599,1.6,2.9,4.0,2.231,2.241,8.576,7.736
397.0,6115210.83,-1.599,1.601,2.9,4.0,2.241,2.238,8.607,7.727
398.0,6130840.107,-1.599,1.6,2.9,4.0,2.237,2.244,8.595,7.748
399.0,6146476.853,-1.6,1.6,2.897,4.0,2.243,2.241,8.616,7.738
400.0,6162116.336,-1.599,1.6,2.9,4.0,2.24,2.238,8.605,7.726
401.0,6177775.124,-1.599,1.6,2.9,4.0,2.237,2.242,8.595,7.739
402.0,6193401.051,-1.6,1.6,2.9,4.0,2.241,2.243,8.61,7.742
403.0,6209056.55,-1.599,1.6,2.9,4.0,2.24,2.237,8.607,7.721
404.0,6224691.013,-1.599,1.6,2.9,4.0,2.237,2.238,8.596,7.725
405.0,6240297.757,-1.599,1.6,2.9,4.0,2.236,2.237,8.591,7.722
406.0,6255916.676,-1.599,1.6,2.9,4.0,2.236,2.236,8.59,7.718
407.0,6271564.508,-1.599,1.6,2.9,4.0,2.235,2.239,8.588,7.727
408.0,6287220.218,-1.6,1.6,2.9,4.0,2.238,2.239,8.597,7.728
409.0,6302864.416,-1.599,1.6,2.9,4.0,2.237,2.235,8.594,7.715
410.0,6318481.56,-1.599,1.6,2.9,4.0,2.234,2.235,8.584,7.716
411.0,6334126.394,-1.599,1.6,2.9,4.0,2.234,2.234,8.586,7.713
412.0,6349759.351,-1.599,1.6,2.9,4.0,2.234,2.238,8.583,7.726
413.0,6365364.64,-1.599,1.6,2.9,4.0,2.236,2.237,8.591,7.723
414.0,6381036.763,-1.599,1.6,2.9,4.0,2.235,2.225,8.587,7.678
415.0,6396698.515,-1.599,1.6,2.899,4.0,2.224,2.225,8.549,7.679
416.0,6412371.73,-1.599,1.6,2.9,4.0,2.225,2.234,8.554,7.712
417.0,6428024.4,-1.599,1.601,2.9,4.0,2.232,2.22,8.577,7.659
418.0,6443631.729,-1.599,1.6,2.9,4.0,2.219,2.228,8.532,7.689
419.0,6459281.322,-1.599,1.6,2.9,4.0,2.228,2.224,8.564,7.675
420.0,6474919.512,-1.6,1.6,2.9,4.0,2.222,2.222,8.543,7.666
421.0,6490534.316,-1.599,1.6,2.9,4.0,2.221,2.227,8.54,7.687
422.0,6506170.138,-1.6,1.6,2.9,4.0,2.227,2.23,8.558,7.697
423.0,6521799.055,-1.599,1.6,2.9,4.0,2.229,2.238,8.567,7.726
424.0,6537379.372,-1.599,1.601,2.9,4.0,2.236,2.223,8.588,7.672
425.0,6553014.375,-1.599,1.6,2.9,4.0,2.221,2.224,8.54,7.676
426.0,6568611.003,-1.599,1.6,2.899,4.0,2.223,2.224,8.545,7.677
427.0,6576352.706,-1.599,1.6,2.9,4.0,1.572,1.601,5.938,5.397
428.0,6592104.814,-1.599,1.6,2.9,4.0,2.251,2.229,8.651,7.692
429.0,6607712.039,-1.599,1.6,2.9,4.0,2.227,2.221,8.559,7.663
430.0,6623362.5,-1.599,1.6,2.9,4.0,2.219,2.221,8.534,7.663
431.0,6639009.55,-1.599,1.6,2.9,4.0,2.219,2.214,8.533,7.638
432.0,6654646.735,-1.599,1.6,2.9,4.0,2.214,2.219,8.513,7.654
433.0,6670236.614,-1.599,1.6,2.9,4.0,2.219,2.193,8.532,7.564
434.0,6685974.455,-1.599,1.6,2.9,4.0,2.188,2.192,8.427,7.552
435.0,6701606.507,-1.599,1.6,2.9,4.0,2.19,2.176,8.433,7.496
436.0,6717362.875,-1.599,1.6,2.9,4.0,2.174,2.174,8.379,7.489
437.0,6732996.818,-1.599,1.6,2.9,4.0,2.176,2.208,8.386,7.616
438.0,6748612.802,-1.599,1.6,2.9,4.0,2.208,2.211,8.493,7.627
439.0,6764294.727,-1.599,1.6,2.9,4.0,2.21,2.215,8.503,7.643
440.0,6779899.175,-1.599,1.6,2.9,4.0,2.214,2.215,8.514,7.643
441.0,6795497.556,-1.6,1.6,2.9,4.0,2.213,2.207,8.509,7.61
442.0,6811107.201,-1.599,1.6,2.9,4.0,2.205,2.201,8.483,7.59
443.0,6826739.02,-1.6,1.6,2.9,4.0,2.201,2.208,8.469,7.614
444.0,6842355.81,-1.599,1.6,2.9,4.0,2.207,2.21,8.489,7.623
445.0,6857980.673,-1.599,1.6,2.9,4.0,2.209,2.217,8.498,7.649
446.0,6873507.126,-1.599,1.6,2.9,4.0,2.215,2.203,8.517,7.599
447.0,6889169.444,-1.599,1.6,2.9,4.0,2.2,2.196,8.468,7.572
448.0,6904732.759,-1.6,1.6,2.9,4.0,2.196,2.21,8.452,7.623
449.0,6920309.905,-1.599,1.6,2.899,4.0,2.208,2.211,8.493,7.628
450.0,6935919.602,-1.599,1.6,2.9,4.0,2.211,2.211,8.502,7.629
451.0,6951517.853,-1.599,1.6,2.9,4.0,2.21,2.212,8.5,7.63
452.0,6967112.411,-1.599,1.6,2.9,4.0,2.21,2.212,8.499,7.632
453.0,6982645.93,-1.599,1.6,2.9,4.0,2.212,2.208,8.503,7.619
454.0,6998214.221,-1.6,1.6,2.9,4.0,2.207,2.212,8.491,7.634
455.0,7013832.539,-1.599,1.6,2.9,4.0,2.21,2.213,8.501,7.634
456.0,7029399.832,-1.6,1.6,2.9,4.0,2.212,2.211,8.504,7.629
457.0,7045005.312,-1.599,1.6,2.9,4.0,2.21,2.213,8.499,7.636
458.0,7060535.402,-1.599,1.6,2.9,4.0,2.213,2.21,8.506,7.626
459.0,7076124.01,-1.6,1.6,2.9,4.0,2.209,2.217,8.492,7.652
460.0,7091694.172,-1.6,1.6,2.9,4.0,2.216,2.211,8.518,7.63
461.0,7107257.383,-1.6,1.6,2.9,4.0,2.21,2.212,8.499,7.631
462.0,7122850.07,-1.6,1.6,2.9,4.0,2.21,2.212,8.499,7.633
463.0,7130481.501,-1.6,1.6,2.9,4.0,1.552,1.572,5.865,5.294
464.0,7146198.735,-1.599,1.6,2.9,4.0,2.228,2.212,8.571,7.63
465.0,7161855.363,-1.6,1.6,2.9,4.0,2.211,2.205,8.505,7.605
466.0,7177444.144,-1.6,1.6,2.899,4.0,2.204,2.204,8.477,7.603
467.0,7193008.31,-1.6,1.6,2.9,4.0,2.203,2.205,8.473,7.605
468.0,7208585.512,-1.599,1.6,2.9,4.0,2.204,2.201,8.476,7.59
469.0,7224115.878,-1.599,1.6,2.9,4.0,2.2,2.203,8.46,7.596
470.0,7239643.71,-1.599,1.6,2.9,4.0,2.202,2.202,8.471,7.593
471.0,7255216.552,-1.599,1.6,2.9,4.0,2.201,2.201,8.468,7.593
472.0,7270784.461,-1.6,1.6,2.9,4.0,2.2,2.205,8.462,7.606
473.0,7286322.343,-1.599,1.6,2.9,4.0,2.203,2.204,8.474,7.604
474.0,7301875.696,-1.599,1.6,2.9,4.0,2.203,2.197,8.473,7.579
475.0,7317441.075,-1.599,1.6,2.9,4.0,2.195,2.191,8.445,7.555
476.0,7333021.591,-1.599,1.6,2.9,4.0,2.191,2.198,8.431,7.583
477.0,7348591.593,-1.6,1.6,2.9,4.0,2.198,2.199,8.456,7.588
478.0,7364135.483,-1.599,1.6,2.9,4.0,2.199,2.201,8.457,7.594
479.0,7379668.488,-1.599,1.6,2.9,4.0,2.2,2.2,8.463,7.592
480.0,7395174.027,-1.6,1.6,2.9,4.0,2.2,2.193,8.46,7.567
481.0,7402689.816,-1.599,1.6,2.9,4.0,1.524,1.548,5.767,5.207
482.0,7418404.931,-1.6,1.6,2.9,4.0,2.212,2.183,8.514,7.524
483.0,7433979.477,-1.599,1.6,2.9,4.0,2.182,2.184,8.401,7.526
484.0,7449538.638,-1.599,1.6,2.9,4.0,2.183,2.183,8.405,7.526
485.0,7465080.271,-1.599,1.6,2.9,4.0,2.182,2.183,8.402,7.526
486.0,7480608.573,-1.6,1.6,2.9,4.0,2.181,2.174,8.398,7.488
487.0,7496229.543,-1.599,1.6,2.9,4.0,2.173,2.176,8.373,7.496
488.0,7511767.914,-1.6,1.6,2.9,4.0,2.176,2.185,8.38,7.532
489.0,7527288.234,-1.6,1.6,2.9,4.0,2.184,2.197,8.407,7.576
490.0,7542889.069,-1.599,1.6,2.9,4.0,2.195,2.187,8.443,7.541
491.0,7558414.615,-1.6,1.6,2.9,4.0,2.187,2.19,8.416,7.549
492.0,7574038.315,-1.599,1.6,2.9,4.0,2.188,2.182,8.423,7.52
493.0,7589652.774,-1.599,1.6,2.9,4.0,2.18,2.176,8.394,7.496
494.0,7605088.126,-1.599,1.6,2.9,4.0,2.174,2.173,8.373,7.487
495.0,7620683.195,-1.599,1.6,2.9,4.0,2.172,2.165,8.367,7.459
496.0,7636220.239,-1.599,1.6,2.9,4.0,2.165,2.167,8.34,7.466
497.0,7651762.273,-1.599,1.6,2.9,4.0,2.165,2.171,8.342,7.478
498.0,7667310.762,-1.599,1.6,2.9,4.0,2.171,2.174,8.363,7.491
499.0,7682795.878,-1.6,1.6,2.9,4.0,2.175,2.186,8.374,7.539
500.0,7698347.572,-1.599,1.6,2.9,4.0,2.185,2.18,8.408,7.516
501.0,7713872.034,-1.599,1.6,2.9,4.0,2.178,2.178,8.387,7.51
502.0,7729412.315,-1.6,1.6,2.9,4.0,2.178,2.182,8.384,7.524
503.0,7744954.6,-1.599,1.6,2.9,4.0,2.18,2.178,8.394,7.506
504.0,7760465.343,-1.599,1.6,2.9,4.0,2.176,2.175,8.38,7.496
505.0,7775993.637,-1.599,1.6,2.9,4.0,2.175,2.18,8.376,7.517
506.0,7791517.01,-1.599,1.6,2.9,4.0,2.179,2.18,8.389,7.515
507.0,7807032.853,-1.599,1.6,2.9,4.0,2.179,2.178,8.387,7.507
508.0,7822519.299,-1.6,1.6,2.9,4.0,2.176,2.169,8.379,7.477
509.0,7838060.846,-1.599,1.6,2.9,4.0,2.167,2.175,8.349,7.493
510.0,7853606.584,-1.599,1.6,2.9,4.0,2.175,2.175,8.374,7.5
511.0,7869131.672,-1.599,1.6,2.9,4.0,2.173,2.167,8.37,7.47
512.0,7884621.442,-1.599,1.6,2.9,4.0,2.165,2.153,8.337,7.416
513.0,7900173.508,-1.599,1.6,2.9,4.0,2.151,2.146,8.292,7.387
514.0,7915746.235,-1.599,1.6,2.9,4.0,2.145,2.144,8.272,7.382
515.0,7931291.918,-1.599,1.6,2.9,4.0,2.143,2.141,8.267,7.373
516.0,7946849.297,-1.599,1.601,2.9,4.0,2.14,2.135,8.254,7.349
517.0,7962419.836,-1.599,1.6,2.9,4.0,2.133,2.128,8.232,7.32
518.0,7978062.499,-1.599,1.6,2.9,4.0,2.126,2.136,8.208,7.351
519.0,7993597.151,-1.599,1.6,2.9,4.0,2.136,2.132,8.24,7.337
520.0,8009188.46,-1.599,1.6,2.9,4.0,2.131,2.128,8.223,7.322
521.0,8024747.148,-1.599,1.6,2.9,4.0,2.127,2.124,8.209,7.306
522.0,8040348.665,-1.599,1.6,2.9,4.0,2.122,2.125,8.194,7.306
523.0,8055899.046,-1.599,1.6,2.9,4.0,2.125,2.133,8.202,7.338
524.0,8071465.198,-1.599,1.601,2.9,4.0,2.132,2.131,8.226,7.334
525.0,8086993.23,-1.599,1.6,2.9,4.0,2.13,2.133,8.212,7.341
526.0,8102572.638,-1.599,1.6,2.9,4.0,2.131,2.124,8.224,7.309
527.0,8118153.297,-1.599,1.6,2.9,4.0,2.123,2.118,8.194,7.282
528.0,8133749.401,-1.599,1.6,2.9,4.0,2.116,2.112,8.172,7.261
529.0,8149358.922,-1.599,1.6,2.9,4.0,2.11,2.107,8.153,7.243
530.0,8165035.755,-1.599,1.6,2.9,4.0,2.107,2.121,8.142,7.294
531.0,8180578.002,-1.599,1.6,2.9,4.0,2.122,2.137,8.194,7.355
532.0,8196103.611,-1.599,1.6,2.9,4.0,2.136,2.134,8.239,7.347
533.0,8211618.736,-1.599,1.6,2.9,4.0,2.134,2.145,8.233,7.387
534.0,8227145.135,-1.599,1.6,2.9,4.0,2.144,2.142,8.269,7.374
535.0,8242647.828,-1.599,1.6,2.9,4.0,2.14,2.139,8.254,7.364
536.0,8258174.052,-1.6,1.6,2.9,4.0,2.137,2.137,8.243,7.357
537.0,8273722.128,-1.599,1.6,2.9,4.0,2.136,2.136,8.24,7.354
538.0,8289173.72,-1.599,1.6,2.899,4.0,2.137,2.149,8.24,7.401
539.0,8304621.071,-1.6,1.6,2.9,4.0,2.149,2.156,8.283,7.433
540.0,8320107.973,-1.599,1.6,2.9,4.0,2.155,2.157,8.304,7.435
541.0,8335631.252,-1.599,1.6,2.9,4.0,2.154,2.139,8.301,7.364
542.0,8351112.125,-1.599,1.6,2.9,4.0,2.137,2.134,8.244,7.348
543.0,8366609.194,-1.599,1.6,2.9,4.0,2.133,2.128,8.23,7.324
544.0,8382113.552,-1.599,1.6,2.9,4.0,2.125,2.12,8.201,7.292
545.0,8397644.926,-1.599,1.6,2.9,4.0,2.118,2.111,8.175,7.26
546.0,8413200.272,-1.599,1.6,2.9,4.0,2.109,2.105,8.147,7.236
547.0,8428733.873,-1.599,1.6,2.9,4.0,2.105,2.122,8.135,7.302
548.0,8444240.538,-1.599,1.6,2.9,4.0,2.122,2.13,8.191,7.332
549.0,8459747.695,-1.599,1.6,2.9,4.0,2.128,2.128,8.211,7.322
550.0,8475343.247,-1.6,1.6,2.9,4.0,2.126,2.15,8.205,7.389
551.0,8490948.318,-1.599,1.6,2.9,4.0,2.148,2.114,8.286,7.273
552.0,8506517.249,-1.599,1.6,2.9,4.0,2.113,2.123,8.159,7.303
553.0,8521997.357,-1.599,1.6,2.9,4.0,2.124,2.126,8.195,7.317
554.0,8537502.462,-1.599,1.6,2.9,4.0,2.125,2.125,8.2,7.315
555.0,8553002.528,-1.599,1.6,2.9,4.0,2.124,2.13,8.198,7.333
556.0,8568470.651,-1.599,1.6,2.9,4.0,2.129,2.132,8.214,7.339
557.0,8583930.418,-1.6,1.6,2.9,4.0,2.131,2.133,8.218,7.345
558.0,8599399.583,-1.599,1.6,2.9,4.0,2.133,2.13,8.226,7.336
559.0,8614868.644,-1.599,1.6,2.9,4.0,2.129,2.126,8.213,7.318
560.0,8630336.368,-1.599,1.6,2.9,4.0,2.124,2.12,8.196,7.295
561.0,8645816.202,-1.599,1.6,2.9,4.0,2.118,2.114,8.176,7.273
562.0,8661304.398,-1.599,1.6,2.899,4.0,2.112,2.107,8.154,7.245
563.0,8668313.283,-1.599,1.6,2.9,4.0,1.408,1.439,5.344,4.822
564.0,8684115.361,-1.599,1.6,2.9,4.0,2.135,2.114,8.249,7.273
565.0,8699611.782,-1.599,1.6,2.9,4.0,2.114,2.117,8.162,7.286
566.0,8715113.365,-1.599,1.6,2.9,4.0,2.117,2.116,8.171,7.284
567.0,8730600.984,-1.599,1.6,2.9,4.0,2.115,2.111,8.165,7.261
568.0,8746117.314,-1.599,1.6,2.9,4.0,2.109,2.115,8.143,7.275
569.0,8761585.854,-1.599,1.6,2.9,4.0,2.116,2.121,8.167,7.302
570.0,8777014.992,-1.599,1.6,2.9,4.0,2.119,2.117,8.178,7.286
571.0,8792451.134,-1.599,1.6,2.9,4.0,2.116,2.118,8.165,7.287
572.0,8807990.682,-1.599,1.6,2.9,4.0,2.118,2.121,8.175,7.3
573.0,8823454.95,-1.599,1.6,2.9,4.0,2.12,2.124,8.183,7.312
574.0,8838914.903,-1.599,1.6,2.9,4.0,2.124,2.13,8.193,7.332
575.0,8854329.833,-1.599,1.6,2.9,4.0,2.129,2.131,8.21,7.337
576.0,8869789.867,-1.599,1.6,2.9,4.0,2.13,2.121,8.215,7.302
577.0,8885177.204,-1.599,1.6,2.9,4.0,2.12,2.124,8.178,7.31
578.0,8900625.875,-1.599,1.6,2.9,4.0,2.123,2.126,8.191,7.318
579.0,8916027.528,-1.599,1.6,2.9,4.0,2.125,2.124,8.196,7.312
580.0,8931437.645,-1.599,1.6,2.9,4.0,2.123,2.127,8.191,7.323
581.0,8946803.188,-1.6,1.6,2.9,4.0,2.125,2.115,8.195,7.277
582.0,8962162.791,-1.599,1.6,2.9,4.0,2.114,2.113,8.157,7.272
583.0,8977656.258,-1.599,1.6,2.9,4.0,2.112,2.12,8.154,7.296
584.0,8993076.338,-1.599,1.6,2.9,4.0,2.119,2.113,8.176,7.274
585.0,9008503.988,-1.599,1.6,2.9,4.0,2.112,2.108,8.153,7.255
586.0,9023951.586,-1.599,1.6,2.9,4.0,2.107,2.114,8.135,7.276
587.0,9039401.577,-1.599,1.6,2.9,4.0,2.113,2.11,8.156,7.259
588.0,9046463.772,-1.599,1.6,2.9,4.0,1.422,1.449,5.393,4.859
589.0,9062091.468,-1.599,1.6,2.9,4.0,2.133,2.092,8.238,7.193
590.0,9077580.884,-1.599,1.6,2.9,4.0,2.09,2.083,8.079,7.158
591.0,9093021.363,-1.599,1.6,2.9,4.0,2.082,2.079,8.043,7.144
592.0,9108540.441,-1.599,1.6,2.9,4.0,2.077,2.082,8.034,7.152
593.0,9123978.944,-1.599,1.6,2.9,4.0,2.083,2.089,8.05,7.182
594.0,9139432.739,-1.599,1.6,2.9,4.0,2.089,2.088,8.071,7.179
595.0,9154891.325,-1.599,1.6,2.9,4.0,2.087,2.084,8.066,7.165
596.0,9170358.421,-1.599,1.6,2.9,4.0,2.083,2.079,8.052,7.145
597.0,9185824.771,-1.599,1.6,2.9,4.0,2.077,2.074,8.033,7.126
598.0,9201351.552,-1.599,1.6,2.9,4.0,2.074,2.091,8.022,7.19
599.0,9216804.747,-1.599,1.6,2.9,4.0,2.09,2.094,8.077,7.202
600.0,9223780.921,-1.599,1.6,2.9,4.0,1.4,1.432,5.314,4.801
601.0,9239428.574,-1.599,1.6,2.9,4.0,2.123,2.085,8.204,7.168
602.0,9254879.237,-1.599,1.6,2.9,4.0,2.084,2.08,8.056,7.15
603.0,9270323.893,-1.599,1.6,2.9,4.0,2.079,2.075,8.038,7.13
604.0,9285842.935,-1.599,1.6,2.9,4.0,2.074,2.089,8.022,7.182
605.0,9301232.555,-1.599,1.6,2.9,4.0,2.089,2.081,8.072,7.152
606.0,9316677.42,-1.599,1.6,2.9,4.0,2.079,2.084,8.037,7.162
607.0,9332031.569,-1.599,1.601,2.9,4.0,2.084,2.088,8.052,7.18
608.0,9347449.201,-1.6,1.6,2.9,4.0,2.086,2.082,8.062,7.158
609.0,9362871.548,-1.599,1.6,2.9,4.0,2.081,2.079,8.043,7.144
610.0,9378230.022,-1.599,1.6,2.9,4.0,2.079,2.074,8.035,7.132
611.0,9393615.003,-1.599,1.6,2.9,4.0,2.073,2.083,8.013,7.162
612.0,9409020.289,-1.599,1.6,2.9,4.0,2.082,2.085,8.046,7.168
613.0,9424383.005,-1.599,1.6,2.9,4.0,2.085,2.083,8.055,7.164
614.0,9439821.501,-1.599,1.6,2.9,4.0,2.083,2.088,8.049,7.179
615.0,9455192.579,-1.599,1.6,2.9,4.0,2.087,2.092,8.063,7.194
616.0,9470541.06,-1.599,1.6,2.9,4.0,2.09,2.081,8.073,7.154
617.0,9485965.591,-1.599,1.6,2.9,4.0,2.079,2.077,8.037,7.141
618.0,9501349.688,-1.599,1.6,2.9,4.0,2.076,2.081,8.025,7.154
619.0,9516732.804,-1.599,1.6,2.9,4.0,2.08,2.077,8.039,7.141
620.0,9532115.888,-1.599,1.6,2.9,4.0,2.076,2.073,8.024,7.125
621.0,9547468.712,-1.599,1.6,2.9,4.0,2.073,2.077,8.014,7.142
622.0,9562799.844,-1.6,1.6,2.9,4.0,2.075,2.079,8.023,7.147
623.0,9578117.851,-1.6,1.6,2.9,4.0,2.077,2.074,8.029,7.13
624.0,9593484.477,-1.599,1.6,2.9,4.0,2.074,2.08,8.016,7.151
625.0,9608836.669,-1.599,1.6,2.9,4.0,2.079,2.077,8.033,7.14
626.0,9624202.931,-1.599,1.6,2.9,4.0,2.075,2.077,8.021,7.138
627.0,9639572.59,-1.6,1.6,2.9,4.0,2.076,2.071,8.024,7.122
628.0,9654940.08,-1.599,1.6,2.9,4.0,2.068,2.065,7.998,7.096
629.0,9670329.945,-1.599,1.6,2.9,4.0,2.065,2.065,7.985,7.096
630.0,9685702.378,-1.599,1.6,2.9,4.0,2.064,2.07,7.984,7.118
631.0,9701093.593,-1.599,1.6,2.9,4.0,2.068,2.061,8.0,7.08
632.0,9707876.438,-1.599,1.6,2.9,4.0,1.356,1.39,5.154,4.653
633.0,9723444.716,-1.599,1.6,2.9,4.0,2.092,2.056,8.093,7.063
634.0,9738843.339,-1.599,1.6,2.9,4.0,2.055,2.055,7.951,7.058
635.0,9754220.724,-1.599,1.6,2.9,4.0,2.055,2.057,7.95,7.065
636.0,9769572.409,-1.599,1.6,2.9,4.0,2.058,2.07,7.96,7.116
637.0,9784866.686,-1.599,1.6,2.9,4.0,2.07,2.066,8.001,7.102
638.0,9800227.561,-1.6,1.6,2.9,4.0,2.066,2.071,7.988,7.121
639.0,9815541.053,-1.599,1.6,2.9,4.0,2.07,2.067,8.001,7.105
640.0,9830895.615,-1.6,1.6,2.9,4.0,2.067,2.074,7.991,7.131
641.0,9840249.128,0.064,1.6,3.414,4.0,2.063,0.0,7.97,0.0