File: Li-ion_Batteries/UL-PUR_R10-EX6_18650_NCA_23C_2.5-96.5_0.5-0.5C_f_cycle_data.csv
Cycle_Index,Test_Time (s),Min_Current (A),Max_Current (A),Min_Voltage (V),Max_Voltage (V),Charge_Capacity (Ah),Discharge_Capacity (Ah),Charge_Energy (Wh),Discharge_Energy (Wh)
1.0,13306.605,-1.134,1.132,2.9,4.0,1.274,2.385,4.844,8.207
2.0,35235.996,-1.134,1.133,2.9,4.0,2.71,2.712,10.135,9.455
3.0,57124.455,-1.134,1.133,2.9,4.0,2.708,2.711,10.129,9.45
4.0,79014.974,-1.134,1.132,2.9,4.0,2.707,2.71,10.128,9.446
5.0,100889.867,-1.134,1.133,2.9,4.0,2.708,2.711,10.128,9.454
6.0,122590.865,-1.134,1.133,2.9,4.0,2.708,2.712,10.123,9.46
7.0,144353.586,-1.134,1.132,2.9,4.0,2.709,2.712,10.128,9.461
8.0,166054.659,-1.134,1.133,2.9,4.0,2.708,2.711,10.125,9.456
9.0,187840.003,-1.134,1.133,2.9,4.0,2.707,2.711,10.125,9.453
10.0,209623.486,-1.134,1.133,2.9,4.0,2.707,2.709,10.122,9.446
11.0,231376.787,-1.134,1.133,2.9,4.0,2.706,2.709,10.121,9.448
12.0,253143.627,-1.134,1.133,2.9,4.0,2.706,2.708,10.119,9.448
13.0,274954.189,-1.134,1.133,2.9,4.0,2.704,2.707,10.113,9.44
14.0,296784.938,-1.134,1.133,2.9,4.0,2.704,2.707,10.112,9.439
15.0,318567.677,-1.134,1.133,2.9,4.0,2.703,2.706,10.109,9.438
16.0,340358.11,-1.134,1.133,2.9,4.0,2.703,2.705,10.109,9.435
17.0,362206.562,-1.134,1.133,2.9,4.0,2.702,2.705,10.106,9.43
18.0,384149.288,-1.134,1.133,2.9,4.0,2.702,2.703,10.106,9.417
19.0,405994.648,-1.134,1.133,2.9,4.0,2.698,2.703,10.101,9.42
20.0,427836.022,-1.134,1.133,2.9,4.0,2.7,2.702,10.101,9.416
21.0,449674.038,-1.134,1.132,2.9,4.0,2.699,2.702,10.097,9.416
22.0,471387.101,-1.134,1.133,2.9,4.0,2.7,2.704,10.099,9.43
23.0,493117.387,-1.134,1.133,2.9,4.0,2.7,2.703,10.098,9.425
24.0,514885.156,-1.134,1.133,2.9,4.0,2.699,2.702,10.096,9.422
25.0,536600.164,-1.134,1.133,2.9,4.0,2.699,2.702,10.094,9.422
26.0,558334.566,-1.134,1.133,2.9,4.0,2.699,2.702,10.093,9.421
27.0,580089.804,-1.134,1.133,2.9,4.0,2.698,2.701,10.091,9.417
28.0,601836.108,-1.134,1.133,2.9,4.0,2.698,2.701,10.09,9.417
29.0,623553.162,-1.134,1.133,2.9,4.0,2.697,2.701,10.088,9.416
30.0,645153.771,-1.134,1.133,2.9,4.0,2.698,2.703,10.09,9.432
31.0,666819.939,-1.134,1.133,2.9,4.0,2.699,2.701,10.09,9.422
32.0,688608.953,-1.134,1.133,2.9,4.0,2.697,2.698,10.082,9.4
33.0,710446.952,-1.134,1.133,2.9,4.0,2.694,2.697,10.08,9.396
34.0,732317.014,-1.134,1.133,2.9,4.0,2.694,2.697,10.079,9.4
35.0,754165.666,-1.134,1.133,2.9,4.0,2.694,2.697,10.078,9.395
36.0,776100.04,-1.134,1.133,2.9,4.0,2.693,2.696,10.077,9.394
37.0,797982.012,-1.134,1.133,2.9,4.0,2.693,2.695,10.074,9.387
38.0,819819.559,-1.134,1.132,2.9,4.0,2.692,2.695,10.071,9.39
39.0,841736.022,-1.134,1.133,2.9,4.0,2.692,2.695,10.072,9.386
40.0,863563.928,-1.134,1.133,2.9,4.0,2.691,2.694,10.069,9.383
41.0,885426.145,-1.134,1.132,2.9,4.0,2.69,2.693,10.066,9.379
42.0,907217.161,-1.134,1.133,2.9,4.0,2.689,2.692,10.064,9.378
43.0,929122.587,-1.134,1.133,2.9,4.0,2.69,2.692,10.064,9.375
44.0,951055.001,-1.134,1.133,2.9,4.0,2.689,2.692,10.063,9.373
45.0,972889.169,-1.134,1.133,2.9,4.0,2.688,2.691,10.061,9.372
46.0,994738.073,-1.134,1.133,2.9,4.0,2.689,2.693,10.062,9.379
47.0,1016585.079,-1.134,1.133,2.9,4.0,2.688,2.691,10.059,9.371
48.0,1038496.051,-1.134,1.133,2.9,4.0,2.688,2.691,10.057,9.368
49.0,1057023.4,-1.6,1.599,2.9,4.0,2.695,2.691,10.12,9.264
50.0,1074288.588,-1.6,1.599,2.9,4.0,2.688,2.691,10.145,9.263
51.0,1091563.09,-1.6,1.599,2.9,4.0,2.688,2.691,10.146,9.263
52.0,1108935.313,-1.6,1.599,2.9,4.0,2.688,2.692,10.143,9.268
53.0,1126301.886,-1.6,1.599,2.9,4.0,2.687,2.69,10.141,9.258
54.0,1143608.175,-1.6,1.599,2.9,4.0,2.687,2.69,10.14,9.255
55.0,1160338.976,-1.6,1.599,2.9,4.0,2.687,2.67,10.14,9.193
56.0,1175995.19,-1.6,1.599,2.9,4.0,2.669,2.485,10.078,8.66
57.0,1191187.331,-1.6,1.599,2.9,4.0,2.486,2.491,9.429,8.679
58.0,1206375.186,-1.6,1.599,2.9,4.0,2.491,2.489,9.446,8.672
59.0,1221531.003,-1.6,1.599,2.9,4.0,2.489,2.475,9.439,8.629
60.0,1236660.233,-1.6,1.599,2.9,4.0,2.475,2.47,9.388,8.611
61.0,1251809.661,-1.6,1.599,2.9,4.0,2.47,2.486,9.375,8.657
62.0,1267004.457,-1.6,1.599,2.9,4.0,2.486,2.487,9.429,8.662
63.0,1282229.347,-1.6,1.599,2.9,4.0,2.487,2.492,9.432,8.68
64.0,1297425.924,-1.6,1.599,2.9,4.0,2.491,2.481,9.448,8.639
65.0,1312618.814,-1.6,1.599,2.9,4.0,2.481,2.469,9.411,8.6
66.0,1327760.232,-1.6,1.599,2.9,4.0,2.467,2.48,9.364,8.633
67.0,1342972.78,-1.6,1.599,2.9,4.0,2.48,2.474,9.413,8.614
68.0,1358161.914,-1.6,1.599,2.9,4.0,2.473,2.483,9.384,8.645
69.0,1373364.567,-1.6,1.599,2.9,4.0,2.483,2.47,9.421,8.606
70.0,1388522.356,-1.6,1.599,2.9,4.0,2.469,2.472,9.371,8.606
71.0,1403691.64,-1.6,1.599,2.9,4.0,2.471,2.465,9.381,8.582
72.0,1418858.846,-1.6,1.599,2.9,4.0,2.464,2.467,9.356,8.59
73.0,1434042.8,-1.6,1.599,2.9,4.0,2.466,2.473,9.363,8.608
74.0,1449265.227,-1.6,1.599,2.9,4.0,2.473,2.477,9.387,8.622
75.0,1464451.136,-1.6,1.599,2.9,4.0,2.476,2.469,9.396,8.596
76.0,1479634.152,-1.6,1.599,2.9,4.0,2.468,2.469,9.367,8.593
77.0,1494853.444,-1.6,1.599,2.9,4.0,2.468,2.463,9.369,8.573
78.0,1510022.079,-1.6,1.599,2.9,4.0,2.463,2.466,9.351,8.581
79.0,1525214.491,-1.6,1.599,2.9,4.0,2.465,2.466,9.359,8.584
80.0,1540381.651,-1.6,1.599,2.9,4.0,2.466,2.463,9.364,8.573
81.0,1549755.065,-1.6,1.599,2.9,4.0,1.945,1.953,7.28,6.667
82.0,1564985.736,-1.6,1.599,2.9,4.0,2.467,2.461,9.368,8.564
83.0,1580196.908,-1.6,1.599,2.9,4.0,2.462,2.458,9.35,8.557
84.0,1595417.014,-1.6,1.599,2.9,4.0,2.458,2.458,9.336,8.556
85.0,1610594.764,-1.6,1.599,2.9,4.0,2.458,2.462,9.334,8.566
86.0,1625783.609,-1.6,1.599,2.9,4.0,2.462,2.466,9.348,8.579
87.0,1640994.794,-1.6,1.599,2.9,4.0,2.466,2.459,9.363,8.557
88.0,1656198.891,-1.6,1.599,2.9,4.0,2.459,2.462,9.339,8.563
89.0,1671406.043,-1.6,1.599,2.9,4.0,2.461,2.456,9.347,8.545
90.0,1686605.235,-1.6,1.599,2.9,4.0,2.456,2.457,9.33,8.548
91.0,1701814.064,-1.6,1.599,2.9,4.0,2.456,2.464,9.328,8.573
92.0,1717021.136,-1.6,1.599,2.9,4.0,2.464,2.461,9.356,8.563
93.0,1732245.189,-1.6,1.599,2.9,4.0,2.462,2.476,9.348,8.617
94.0,1747362.158,-1.6,1.599,2.9,4.0,2.476,2.435,9.394,8.478
95.0,1762570.296,-1.6,1.599,2.9,4.0,2.472,2.48,9.384,8.632
96.0,1777782.204,-1.6,1.599,2.9,4.0,2.48,2.478,9.408,8.626
97.0,1792997.217,-1.6,1.599,2.9,4.0,2.478,2.478,9.4,8.623
98.0,1808208.734,-1.6,1.599,2.9,4.0,2.477,2.477,9.399,8.622
99.0,1823407.809,-1.6,1.599,2.9,4.0,2.477,2.481,9.399,8.635
100.0,1838650.657,-1.6,1.599,2.9,4.0,2.479,2.473,9.407,8.605
101.0,1853723.054,-1.6,1.599,2.9,4.0,2.47,2.416,9.372,8.395
102.0,1868957.151,-1.6,1.599,2.9,4.0,2.413,2.397,9.187,8.324
103.0,1884193.351,-1.6,1.599,2.9,4.0,2.395,2.388,9.128,8.29
104.0,1899528.295,-1.6,1.599,2.9,4.0,2.387,2.416,9.1,8.388
105.0,1914753.843,-1.6,1.599,2.9,4.0,2.419,2.437,9.206,8.471
106.0,1929971.361,-1.6,1.599,2.9,4.0,2.436,2.44,9.264,8.484
107.0,1945184.231,-1.6,1.599,2.9,4.0,2.44,2.444,9.275,8.498
108.0,1960406.039,-1.6,1.599,2.9,4.0,2.443,2.446,9.288,8.504
109.0,1975605.619,-1.6,1.599,2.9,4.0,2.444,2.435,9.29,8.467
110.0,1990827.279,-1.6,1.599,2.9,4.0,2.434,2.431,9.257,8.451
111.0,2006066.441,-1.6,1.599,2.9,4.0,2.43,2.437,9.244,8.468
112.0,2021271.5,-1.6,1.599,2.9,4.0,2.437,2.429,9.265,8.441
113.0,2036507.209,-1.6,1.599,2.9,4.0,2.428,2.423,9.236,8.42
114.0,2051732.614,-1.6,1.599,2.9,4.0,2.422,2.418,9.218,8.4
115.0,2066977.499,-1.6,1.599,2.9,4.0,2.417,2.421,9.201,8.406
116.0,2082136.666,-1.6,1.599,2.9,4.0,2.421,2.426,9.213,8.431
117.0,2097361.987,-1.6,1.599,2.9,4.0,2.425,2.428,9.228,8.439
118.0,2112616.202,-1.6,1.599,2.9,4.0,2.427,2.429,9.235,8.442
119.0,2127890.253,-1.6,1.599,2.9,4.0,2.428,2.442,9.237,8.486
120.0,2137083.506,-1.6,1.599,2.9,4.0,1.909,1.908,7.151,6.503
121.0,2152382.452,-1.6,1.599,2.9,4.0,2.44,2.438,9.278,8.471
122.0,2167645.193,-1.6,1.599,2.9,4.0,2.437,2.429,9.267,8.439
123.0,2182895.529,-1.6,1.599,2.9,4.0,2.428,2.434,9.236,8.459
124.0,2198160.494,-1.6,1.599,2.9,4.0,2.433,2.429,9.253,8.439
125.0,2213436.495,-1.6,1.599,2.9,4.0,2.428,2.424,9.235,8.418
126.0,2228671.873,-1.6,1.599,2.9,4.0,2.424,2.423,9.225,8.42
127.0,2243944.434,-1.6,1.599,2.9,4.0,2.422,2.413,9.216,8.381
128.0,2259186.995,-1.6,1.599,2.9,4.0,2.413,2.416,9.185,8.391
129.0,2274438.701,-1.6,1.599,2.9,4.0,2.415,2.417,9.194,8.394
130.0,2289659.122,-1.6,1.599,2.9,4.0,2.417,2.412,9.197,8.374
131.0,2304869.531,-1.6,1.599,2.9,4.0,2.411,2.405,9.18,8.352
132.0,2320132.104,-1.6,1.599,2.9,4.0,2.403,2.398,9.155,8.324
133.0,2335386.709,-1.6,1.599,2.9,4.0,2.398,2.405,9.138,8.353
134.0,2350652.825,-1.6,1.599,2.9,4.0,2.404,2.407,9.157,8.359
135.0,2365910.707,-1.6,1.599,2.9,4.0,2.407,2.406,9.166,8.353
136.0,2381179.339,-1.6,1.599,2.9,4.0,2.405,2.403,9.159,8.343
137.0,2396461.034,-1.6,1.599,2.9,4.0,2.402,2.397,9.149,8.321
138.0,2411730.325,-1.6,1.599,2.9,4.0,2.397,2.407,9.133,8.359
139.0,2427007.567,-1.6,1.599,2.9,4.0,2.407,2.408,9.165,8.361
140.0,2442276.901,-1.6,1.599,2.9,4.0,2.407,2.406,9.17,8.353
141.0,2457556.529,-1.6,1.599,2.9,4.0,2.405,2.406,9.162,8.356
142.0,2472928.78,-1.6,1.599,2.9,4.0,2.405,2.435,9.16,8.439
143.0,2488295.68,-1.6,1.599,2.9,4.0,2.434,2.401,9.258,8.334
144.0,2503590.814,-1.6,1.599,2.9,4.0,2.401,2.403,9.146,8.343
145.0,2518903.247,-1.6,1.599,2.9,4.0,2.402,2.411,9.15,8.369
146.0,2534162.228,-1.6,1.599,2.9,4.0,2.411,2.406,9.179,8.357
147.0,2549393.203,-1.6,1.599,2.9,4.0,2.404,2.4,9.158,8.329
148.0,2564659.89,-1.6,1.599,2.9,4.0,2.398,2.395,9.137,8.313
149.0,2579946.607,-1.6,1.599,2.9,4.0,2.394,2.394,9.125,8.309
150.0,2595199.738,-1.6,1.599,2.9,4.0,2.394,2.384,9.125,8.271
151.0,2610424.95,-1.6,1.599,2.9,4.0,2.382,2.386,9.08,8.277
152.0,2625701.864,-1.6,1.599,2.9,4.0,2.386,2.385,9.096,8.274
153.0,2640989.587,-1.6,1.599,2.9,4.0,2.384,2.385,9.088,8.272
154.0,2656303.323,-1.6,1.599,2.9,4.0,2.383,2.384,9.088,8.268
155.0,2671589.639,-1.6,1.599,2.9,4.0,2.383,2.38,9.087,8.254
156.0,2686860.685,-1.6,1.599,2.9,4.0,2.379,2.379,9.074,8.252
157.0,2702153.94,-1.6,1.599,2.9,4.0,2.378,2.372,9.069,8.225
158.0,2717469.712,-1.6,1.599,2.9,4.0,2.371,2.381,9.047,8.255
159.0,2726249.734,-1.6,1.599,2.9,4.0,1.814,1.82,6.811,6.181
160.0,2741646.948,-1.6,1.599,2.9,4.0,2.384,2.382,9.095,8.26
161.0,2756975.22,-1.6,1.599,2.9,4.0,2.381,2.379,9.081,8.249
162.0,2772286.406,-1.6,1.599,2.9,4.0,2.38,2.379,9.074,8.25
163.0,2787642.017,-1.6,1.599,2.9,4.0,2.377,2.373,9.067,8.226
164.0,2802937.278,-1.6,1.599,2.9,4.0,2.372,2.375,9.049,8.233
165.0,2818251.969,-1.6,1.599,2.9,4.0,2.374,2.378,9.056,8.243
166.0,2827008.167,-1.6,1.599,2.9,4.0,1.808,1.815,6.792,6.162
167.0,2842402.439,-1.6,1.599,2.9,4.0,2.381,2.374,9.083,8.231
168.0,2857681.893,-1.6,1.599,2.9,4.0,2.373,2.365,9.053,8.194
169.0,2873031.916,-1.6,1.599,2.9,4.0,2.364,2.381,9.023,8.254
170.0,2888327.094,-1.6,1.599,2.9,4.0,2.382,2.391,9.083,8.295
171.0,2903624.272,-1.6,1.599,2.9,4.0,2.39,2.393,9.11,8.303
172.0,2918996.397,-1.6,1.599,2.9,4.0,2.39,2.371,9.109,8.221
173.0,2934323.084,-1.6,1.599,2.9,4.0,2.371,2.368,9.047,8.21
174.0,2949626.391,-1.6,1.599,2.9,4.0,2.367,2.368,9.032,8.21
175.0,2964965.718,-1.6,1.599,2.9,4.0,2.366,2.371,9.031,8.218
176.0,2980295.502,-1.6,1.599,2.9,4.0,2.37,2.367,9.044,8.206
177.0,2995621.918,-1.6,1.599,2.9,4.0,2.367,2.371,9.034,8.219
178.0,3010971.107,-1.6,1.599,2.9,4.0,2.369,2.371,9.041,8.219
179.0,3026310.862,-1.6,1.599,2.9,4.0,2.37,2.369,9.041,8.213
180.0,3041602.306,-1.618,1.599,2.9,4.0,2.368,2.357,9.036,8.172
181.0,3056900.644,-1.6,1.599,2.9,4.0,2.357,2.363,8.999,8.191
182.0,3072229.225,-1.6,1.599,2.9,4.0,2.362,2.367,9.016,8.203
183.0,3087383.526,-1.6,1.599,2.9,4.0,2.366,2.362,9.029,8.183
184.0,3102711.39,-1.6,1.599,2.9,4.0,2.361,2.361,9.012,8.182
185.0,3118042.582,-1.6,1.599,2.9,4.0,2.36,2.36,9.009,8.18
186.0,3133397.425,-1.6,1.599,2.9,4.0,2.359,2.357,9.005,8.164
187.0,3148752.732,-1.6,1.599,2.9,4.0,2.356,2.362,8.995,8.186
188.0,3164105.782,-1.6,1.599,2.9,4.0,2.361,2.357,9.01,8.169
189.0,3179451.835,-1.6,1.599,2.9,4.0,2.356,2.36,8.996,8.178
190.0,3194789.054,-1.6,1.599,2.9,4.0,2.36,2.358,9.007,8.17
191.0,3210099.283,-1.6,1.599,2.9,4.0,2.358,2.365,9.0,8.198
192.0,3225448.548,-1.6,1.599,2.9,4.0,2.364,2.363,9.022,8.189
193.0,3240800.614,-1.6,1.599,2.9,4.0,2.362,2.364,9.015,8.194
194.0,3256123.159,-1.6,1.599,2.9,4.0,2.364,2.369,9.022,8.212
195.0,3264823.656,-1.6,1.599,2.9,4.0,1.794,1.804,6.74,6.124
196.0,3280206.855,-1.6,1.599,2.9,4.0,2.375,2.371,9.063,8.22
197.0,3288873.551,-1.6,1.599,2.9,4.0,1.792,1.791,6.729,6.079
198.0,3304303.202,-1.6,1.599,2.9,4.0,2.368,2.357,9.039,8.165
199.0,3319652.533,-1.6,1.599,2.9,4.0,2.357,2.357,8.998,8.166
200.0,3335003.944,-1.6,1.599,2.9,4.0,2.356,2.356,8.994,8.163
201.0,3350348.426,-1.6,1.599,2.9,4.0,2.355,2.355,8.991,8.161
202.0,3365683.994,-1.6,1.599,2.9,4.0,2.354,2.354,8.988,8.158
203.0,3381009.066,-1.6,1.599,2.9,4.0,2.354,2.351,8.987,8.147
204.0,3396356.214,-1.6,1.599,2.9,4.0,2.35,2.347,8.974,8.134
205.0,3411709.489,-1.6,1.599,2.9,4.0,2.347,2.353,8.964,8.152
206.0,3427049.433,-1.6,1.599,2.9,4.0,2.352,2.35,8.98,8.143
207.0,3442410.563,-1.6,1.599,2.9,4.0,2.349,2.352,8.972,8.146
208.0,3457740.546,-1.6,1.599,2.9,4.0,2.351,2.349,8.976,8.139
209.0,3473085.577,-1.6,1.599,2.9,4.0,2.348,2.346,8.968,8.129
210.0,3488443.148,-1.6,1.599,2.9,4.0,2.345,2.346,8.959,8.126
211.0,3503790.093,-1.6,1.599,2.9,4.0,2.345,2.346,8.959,8.129
212.0,3519130.83,-1.6,1.599,2.9,4.0,2.345,2.344,8.958,8.122
213.0,3534494.867,-1.6,1.599,2.9,4.0,2.344,2.348,8.953,8.135
214.0,3549839.857,-1.6,1.599,2.9,4.0,2.346,2.344,8.961,8.121
215.0,3565177.207,-1.6,1.599,2.9,4.0,2.343,2.34,8.951,8.105
216.0,3580528.048,-1.6,1.599,2.9,4.0,2.339,2.342,8.938,8.113
217.0,3595876.349,-1.6,1.599,2.9,4.0,2.341,2.343,8.944,8.118
218.0,3611235.009,-1.6,1.599,2.9,4.0,2.342,2.345,8.946,8.121
219.0,3626572.918,-1.6,1.599,2.9,4.0,2.345,2.339,8.956,8.103
220.0,3641917.356,-1.6,1.599,2.9,4.0,2.338,2.341,8.935,8.111
221.0,3657260.295,-1.6,1.599,2.9,4.0,2.34,2.337,8.941,8.096
222.0,3665760.704,-1.6,1.599,2.9,4.0,1.748,1.761,6.575,5.969
223.0,3681203.521,-1.6,1.599,2.9,4.0,2.347,2.346,8.97,8.121
224.0,3696586.855,-1.6,1.599,2.9,4.0,2.345,2.337,8.951,8.092
225.0,3711964.485,-1.6,1.599,2.9,4.0,2.337,2.338,8.929,8.099
226.0,3727341.652,-1.6,1.599,2.9,4.0,2.338,2.338,8.932,8.096
227.0,3742697.077,-1.6,1.599,2.9,4.0,2.336,2.334,8.928,8.083
228.0,3758082.4,-1.6,1.599,2.9,4.0,2.334,2.337,8.92,8.095
229.0,3773447.161,-1.6,1.599,2.9,4.0,2.336,2.335,8.927,8.089
230.0,3788809.934,-1.6,1.599,2.9,4.0,2.334,2.336,8.921,8.09
231.0,3804177.358,-1.6,1.599,2.9,4.0,2.335,2.335,8.925,8.087
232.0,3819567.168,-1.6,1.599,2.9,4.0,2.334,2.335,8.92,8.085
233.0,3834924.887,-1.6,1.599,2.9,4.0,2.334,2.329,8.919,8.065
234.0,3850312.285,-1.6,1.599,2.9,4.0,2.328,2.33,8.9,8.065
235.0,3865671.836,-1.6,1.599,2.9,4.0,2.33,2.332,8.905,8.076
236.0,3881090.501,-1.6,1.599,2.9,4.0,2.331,2.336,8.911,8.089
237.0,3896426.263,-1.6,1.599,2.9,4.0,2.335,2.33,8.922,8.068
238.0,3911806.341,-1.6,1.599,2.9,4.0,2.329,2.33,8.903,8.07
239.0,3927148.57,-1.6,1.599,2.9,4.0,2.33,2.325,8.904,8.05
240.0,3942561.264,-1.6,1.599,2.9,4.0,2.325,2.334,8.888,8.081
241.0,3957931.796,-1.6,1.599,2.9,4.0,2.333,2.329,8.915,8.066
242.0,3973310.492,-1.6,1.599,2.9,4.0,2.328,2.335,8.9,8.088
243.0,3988655.591,-1.6,1.599,2.9,4.0,2.335,2.328,8.922,8.061
244.0,4004039.803,-1.6,1.599,2.9,4.0,2.327,2.332,8.895,8.073
245.0,4019436.057,-1.6,1.599,2.9,4.0,2.33,2.326,8.905,8.052
246.0,4034795.348,-1.6,1.599,2.9,4.0,2.325,2.327,8.888,8.058
247.0,4050155.965,-1.6,1.599,2.9,4.0,2.326,2.324,8.891,8.045
248.0,4058575.731,-1.6,1.599,2.9,4.0,1.73,1.743,6.51,5.906
249.0,4074008.817,-1.6,1.599,2.9,4.0,2.335,2.328,8.927,8.06
250.0,4089324.366,-1.6,1.599,2.9,4.0,2.327,2.326,8.895,8.052
251.0,4104704.046,-1.6,1.599,2.9,4.0,2.326,2.329,8.89,8.063
252.0,4120102.489,-1.6,1.599,2.9,4.0,2.328,2.324,8.898,8.042
253.0,4135479.394,-1.6,1.599,2.9,4.0,2.323,2.32,8.88,8.03
254.0,4150856.467,-1.6,1.599,2.9,4.0,2.319,2.321,8.868,8.034
255.0,4166264.38,-1.6,1.599,2.9,4.0,2.321,2.327,8.872,8.055
256.0,4181654.627,-1.6,1.599,2.9,4.0,2.326,2.323,8.891,8.044
257.0,4197013.255,-1.6,1.599,2.9,4.0,2.323,2.324,8.879,8.044
258.0,4212379.091,-1.6,1.599,2.9,4.0,2.323,2.322,8.88,8.039
259.0,4227741.516,-1.6,1.599,2.9,4.0,2.321,2.321,8.872,8.034
260.0,4243069.563,-1.6,1.599,2.9,4.0,2.321,2.331,8.874,8.073
261.0,4258429.99,-1.6,1.599,2.9,4.0,2.33,2.323,8.907,8.042
262.0,4273800.572,-1.6,1.599,2.9,4.0,2.322,2.319,8.877,8.03
263.0,4289167.865,-1.6,1.599,2.9,4.0,2.318,2.323,8.864,8.05
264.0,4297539.484,-1.6,1.599,2.9,4.0,1.725,1.727,6.49,5.848
265.0,4305885.148,-1.6,1.599,2.9,4.0,1.718,1.722,6.469,5.83
266.0,4321426.964,-1.6,1.599,2.9,4.0,2.324,2.321,8.893,8.033
267.0,4329821.455,-1.6,1.599,2.9,4.0,1.726,1.736,6.495,5.88
268.0,4338199.4,-1.6,1.599,2.9,4.0,1.727,1.728,6.497,5.851
269.0,4353685.645,-1.6,1.599,2.9,4.0,2.329,2.323,8.909,8.037
270.0,4369079.93,-1.6,1.599,2.9,4.0,2.323,2.322,8.881,8.036
271.0,4384462.769,-1.6,1.599,2.9,4.0,2.321,2.319,8.874,8.028
272.0,4399836.429,-1.6,1.599,2.9,4.0,2.319,2.319,8.866,8.029
273.0,4415242.883,-1.6,1.599,2.9,4.0,2.317,2.32,8.861,8.027
274.0,4430635.633,-1.6,1.599,2.9,4.0,2.319,2.315,8.866,8.012
275.0,4438981.119,-1.6,1.599,2.9,4.0,1.714,1.726,6.452,5.844
276.0,4454415.484,-1.6,1.599,2.9,4.0,2.324,2.315,8.889,8.011
277.0,4469778.402,-1.6,1.599,2.9,4.0,2.315,2.314,8.852,8.008
278.0,4485128.991,-1.6,1.599,2.9,4.0,2.313,2.313,8.845,8.004
279.0,4500432.442,-1.6,1.599,2.9,4.0,2.313,2.321,8.846,8.031
280.0,4515847.857,-1.6,1.599,2.9,4.0,2.32,2.313,8.871,8.005
281.0,4531215.457,-1.6,1.599,2.9,4.0,2.311,2.307,8.839,7.982
282.0,4546582.57,-1.6,1.599,2.9,4.0,2.306,2.309,8.821,7.991
283.0,4561952.236,-1.6,1.599,2.9,4.0,2.308,2.309,8.83,7.991
284.0,4577318.742,-1.6,1.599,2.899,4.0,2.309,2.315,8.831,8.012
285.0,4592697.946,-1.6,1.599,2.9,4.0,2.314,2.317,8.85,8.019
286.0,4608014.935,-1.6,1.599,2.9,4.0,2.317,2.325,8.857,8.048
287.0,4623388.196,-1.6,1.599,2.9,4.0,2.323,2.311,8.877,7.997
288.0,4638739.978,-1.6,1.599,2.9,4.0,2.31,2.305,8.834,7.974
289.0,4654108.462,-1.611,1.599,2.9,4.0,2.304,2.301,8.813,7.959
290.0,4669494.994,-1.6,1.599,2.9,4.0,2.3,2.315,8.801,8.011
291.0,4684826.012,-1.6,1.599,2.9,4.0,2.315,2.315,8.851,8.012
292.0,4700164.612,-1.607,1.599,2.9,4.0,2.314,2.312,8.848,8.001
293.0,4715527.552,-1.6,1.599,2.9,4.0,2.311,2.309,8.836,7.992
294.0,4730877.452,-1.6,1.599,2.9,4.0,2.308,2.305,8.827,7.974
295.0,4746251.475,-1.6,1.599,2.9,4.0,2.304,2.305,8.815,7.978
296.0,4761520.491,-1.6,1.599,2.9,4.0,2.304,2.302,8.814,7.963
297.0,4776881.076,-1.6,1.599,2.9,4.0,2.3,2.298,8.801,7.946
298.0,4792242.871,-1.6,1.599,2.9,4.0,2.297,2.297,8.792,7.947
299.0,4807587.048,-1.6,1.599,2.9,4.0,2.297,2.297,8.788,7.946
300.0,4822935.692,-1.6,1.599,2.9,4.0,2.296,2.291,8.786,7.925
301.0,4838361.644,-1.6,1.599,2.9,4.0,2.289,2.298,8.764,7.946
302.0,4853672.483,-1.6,1.599,2.899,4.0,2.299,2.303,8.798,7.971
303.0,4868948.697,-1.6,1.599,2.9,4.0,2.303,2.308,8.808,7.987
304.0,4884278.032,-1.6,1.599,2.9,4.0,2.306,2.303,8.822,7.968
305.0,4899519.355,-1.6,1.599,2.9,4.0,2.302,2.304,8.808,7.974
306.0,4914847.405,-1.6,1.599,2.9,4.0,2.302,2.295,8.806,7.941
307.0,4930187.265,-1.6,1.599,2.9,4.0,2.294,2.295,8.78,7.939
308.0,4945550.652,-1.6,1.599,2.9,4.0,2.294,2.298,8.781,7.951
309.0,4960895.61,-1.6,1.599,2.9,4.0,2.297,2.293,8.79,7.932
310.0,4976272.678,-1.6,1.599,2.9,4.0,2.292,2.292,8.773,7.928
311.0,4991644.927,-1.6,1.599,2.9,4.0,2.292,2.295,8.774,7.94
312.0,5006998.896,-1.6,1.599,2.9,4.0,2.294,2.295,8.78,7.94
313.0,5015232.884,-1.6,1.599,2.9,4.0,1.692,1.699,6.371,5.75
314.0,5030667.461,-1.6,1.599,2.9,4.0,2.299,2.289,8.802,7.918
315.0,5046016.69,-1.6,1.599,2.9,4.0,2.289,2.288,8.764,7.914
316.0,5061365.088,-1.6,1.599,2.9,4.0,2.287,2.285,8.757,7.9
317.0,5076731.337,-1.6,1.599,2.9,4.0,2.284,2.286,8.744,7.906
318.0,5092081.37,-1.6,1.599,2.9,4.0,2.286,2.295,8.751,7.937
319.0,5107411.01,-1.6,1.599,2.9,4.0,2.294,2.294,8.78,7.938
320.0,5122719.943,-1.6,1.599,2.9,4.0,2.295,2.303,8.781,7.973
321.0,5138030.069,-1.6,1.599,2.9,4.0,2.301,2.292,8.803,7.928
322.0,5153355.42,-1.6,1.599,2.9,4.0,2.29,2.286,8.764,7.906
323.0,5168686.174,-1.6,1.599,2.9,4.0,2.284,2.282,8.746,7.893
324.0,5184053.123,-1.6,1.599,2.9,4.0,2.282,2.291,8.739,7.926
325.0,5187864.499,1.599,1.599,3.357,4.0,1.693,0.0,6.375,0.0