File: Li-ion_Batteries/UL-PUR_N15-NA10_18650_NCA_23C_0-100_0.5-0.5C_j_cycle_data.csv
Cycle_Index,Test_Time (s),Min_Current (A),Max_Current (A),Min_Voltage (V),Max_Voltage (V),Charge_Capacity (Ah),Discharge_Capacity (Ah),Charge_Energy (Wh),Discharge_Energy (Wh)
1.0,15382.818,-1.6,1.6,2.7,4.2,1.888,3.229,7.605,11.456
2.0,33593.707,-1.6,1.6,2.7,4.2,3.231,3.204,12.491,11.378
3.0,51605.512,-1.6,1.6,2.7,4.2,3.209,3.183,12.405,11.309
4.0,69494.812,-1.6,1.6,2.7,4.2,3.187,3.172,12.322,11.272
5.0,87259.882,-1.6,1.6,2.7,4.2,3.176,3.163,12.278,11.237
6.0,105021.656,-1.6,1.6,2.7,4.2,3.165,3.158,12.243,11.224
7.0,122720.549,-1.6,1.6,2.7,4.2,3.162,3.154,12.231,11.213
8.0,140423.239,-1.6,1.6,2.7,4.2,3.157,3.156,12.211,11.22
9.0,158166.041,-1.6,1.6,2.7,4.2,3.158,3.162,12.217,11.239
10.0,175880.024,-1.6,1.6,2.7,4.2,3.164,3.148,12.231,11.186
11.0,193521.78,-1.6,1.6,2.7,4.2,3.15,3.13,12.185,11.121
12.0,211165.735,-1.6,1.6,2.7,4.2,3.133,3.134,12.128,11.139
13.0,228787.925,-1.6,1.6,2.7,4.2,3.137,3.132,12.14,11.129
14.0,246430.721,-1.6,1.6,2.7,4.2,3.134,3.124,12.132,11.104
15.0,264099.371,-1.6,1.6,2.698,4.2,3.126,3.118,12.106,11.075
16.0,281768.465,-1.6,1.6,2.7,4.2,3.12,3.123,12.085,11.091
17.0,299397.857,-1.6,1.6,2.7,4.2,3.127,3.126,12.105,11.106
18.0,317034.979,-2.209,1.6,2.666,4.2,3.128,3.122,12.108,11.092
19.0,334658.392,-1.6,1.6,2.7,4.2,3.125,3.12,12.099,11.086
20.0,352297.848,-1.6,1.6,2.7,4.2,3.122,3.129,12.088,11.115
21.0,369930.519,-1.6,1.6,2.7,4.2,3.131,3.117,12.116,11.068
22.0,387571.311,-1.6,1.6,2.7,4.2,3.118,3.118,12.074,11.075
23.0,405207.712,-1.6,1.6,2.7,4.2,3.12,3.117,12.081,11.07
24.0,422844.902,-1.6,1.6,2.7,4.2,3.119,3.117,12.078,11.07
25.0,440507.503,-1.6,1.6,2.7,4.2,3.12,3.105,12.081,11.023
26.0,458173.597,-1.6,1.6,2.7,4.208,3.107,3.118,12.036,11.074
27.0,475845.705,-1.6,1.6,2.7,4.2,3.12,3.115,12.08,11.057
28.0,493490.016,-1.6,1.6,2.7,4.2,3.117,3.108,12.071,11.031
29.0,511140.909,-1.6,1.6,2.7,4.2,3.11,3.106,12.047,11.022
30.0,528808.591,-1.6,1.6,2.7,4.2,3.107,3.104,12.037,11.014
31.0,546498.411,-1.6,1.6,2.7,4.2,3.106,3.111,12.035,11.041
32.0,564159.159,-1.6,1.6,2.7,4.2,3.114,3.103,12.061,11.01
33.0,581864.989,-1.6,1.6,2.7,4.2,3.104,3.107,12.028,11.024
34.0,599520.97,-1.6,1.6,2.7,4.2,3.11,3.094,12.047,10.977
35.0,617184.405,-1.6,1.6,2.7,4.2,3.095,3.095,11.997,10.977
36.0,634904.911,-1.6,1.6,2.7,4.2,3.097,3.098,12.004,10.987
37.0,652617.256,-1.6,1.6,2.7,4.2,3.099,3.1,12.012,10.992
38.0,670332.236,-1.6,1.6,2.7,4.2,3.102,3.096,12.021,10.977
39.0,682705.763,-1.6,1.6,2.7,4.2,2.618,2.613,9.994,9.11
40.0,700496.199,-1.601,1.6,2.696,4.2,3.09,3.091,11.987,10.951
41.0,718305.696,-4.746,1.6,2.551,4.2,3.092,3.093,11.992,10.958
42.0,736093.086,-2.345,1.6,2.659,4.2,3.095,3.091,12.001,10.948
43.0,753894.617,-1.6,1.6,2.7,4.2,3.092,3.089,11.993,10.945
44.0,771615.412,-1.6,1.6,2.7,4.2,3.091,3.078,11.986,10.903
45.0,789412.579,-1.6,1.6,2.7,4.2,3.08,3.081,11.952,10.908
46.0,807220.618,-1.6,1.6,2.7,4.2,3.083,3.082,11.962,10.917
47.0,825059.1,-1.6,1.6,2.7,4.2,3.083,3.079,11.963,10.905
48.0,842879.097,-1.6,1.6,2.7,4.2,3.08,3.077,11.952,10.895
49.0,860648.955,-1.682,1.6,2.692,4.2,3.078,3.066,11.945,10.85
50.0,878480.283,-1.6,1.6,2.7,4.2,3.067,3.067,11.908,10.854
51.0,896325.163,-1.648,1.6,2.694,4.2,3.069,3.072,11.916,10.871
52.0,914206.15,-1.6,1.6,2.7,4.2,3.074,3.074,11.933,10.877
53.0,932093.223,-1.6,1.6,2.7,4.2,3.075,3.073,11.936,10.872
54.0,949984.637,-1.6,1.6,2.7,4.2,3.074,3.068,11.933,10.849
55.0,967889.342,-4.671,1.6,2.551,4.2,3.07,3.063,11.919,10.83
56.0,985803.438,-1.6,1.6,2.7,4.2,3.065,3.067,11.904,10.848
57.0,1003729.531,-1.6,1.6,2.7,4.2,3.07,3.077,11.918,10.879
58.0,1021623.74,-1.6,1.6,2.7,4.2,3.078,3.072,11.947,10.868
59.0,1033808.538,-1.6,1.6,2.7,4.2,2.577,2.57,9.847,8.932
60.0,1051781.339,-1.6,1.6,2.7,4.2,3.064,3.063,11.904,10.824
61.0,1069738.685,-1.6,1.6,2.7,4.2,3.065,3.059,11.904,10.814
62.0,1087694.153,-1.6,1.6,2.7,4.2,3.061,3.056,11.89,10.799
63.0,1105658.76,-1.6,1.6,2.7,4.2,3.057,3.053,11.879,10.786
64.0,1123690.828,-1.6,1.6,2.7,4.2,3.053,3.04,11.866,10.739
65.0,1135680.759,-1.6,1.6,2.7,4.2,2.527,2.533,9.67,8.784
66.0,1153707.14,-1.6,1.6,2.7,4.2,3.048,3.048,11.852,10.764
67.0,1171737.488,-1.6,1.6,2.7,4.2,3.049,3.042,11.855,10.74
68.0,1189793.816,-1.6,1.6,2.7,4.2,3.043,3.037,11.836,10.717
69.0,1207856.765,-1.6,1.6,2.7,4.2,3.039,3.039,11.819,10.724
70.0,1225900.093,-1.6,1.6,2.7,4.2,3.04,3.032,11.825,10.699
71.0,1243964.483,-1.6,1.6,2.7,4.2,3.034,3.036,11.804,10.715
72.0,1262050.119,-1.6,1.601,2.7,4.2,3.038,3.037,11.82,10.718
73.0,1280152.004,-1.6,1.6,2.7,4.2,3.039,3.041,11.82,10.727
74.0,1298269.336,-1.6,1.6,2.7,4.2,3.042,3.035,11.832,10.705
75.0,1316390.923,-1.6,1.6,2.7,4.2,3.036,3.035,11.813,10.702
76.0,1334536.578,-1.6,1.6,2.7,4.2,3.037,3.031,11.814,10.687
77.0,1352683.389,-1.6,1.6,2.7,4.2,3.033,3.031,11.802,10.688
78.0,1370831.254,-1.898,1.6,2.681,4.2,3.032,3.024,11.801,10.663
79.0,1388957.218,-1.6,1.6,2.7,4.2,3.024,3.017,11.772,10.637
80.0,1407180.751,-1.78,1.6,2.686,4.2,3.018,3.021,11.755,10.643
81.0,1425385.626,-1.6,1.6,2.7,4.2,3.023,3.029,11.769,10.678
82.0,1443589.837,-2.53,1.6,2.649,4.2,3.03,3.021,11.796,10.645
83.0,1461739.913,-1.6,1.6,2.7,4.2,3.023,3.014,11.769,10.618
84.0,1479989.601,-1.6,1.6,2.7,4.2,3.014,3.014,11.741,10.612
85.0,1498186.665,-1.6,1.6,2.7,4.2,3.016,3.015,11.75,10.617
86.0,1516417.711,-1.6,1.6,2.7,4.2,3.017,3.013,11.752,10.611
87.0,1534652.735,-1.6,1.6,2.7,4.2,3.015,3.016,11.742,10.623
88.0,1552878.913,-1.6,1.6,2.7,4.2,3.019,3.019,11.755,10.634
89.0,1571171.821,-1.6,1.6,2.7,4.2,3.019,3.007,11.756,10.586
90.0,1582929.625,-1.6,1.6,2.7,4.2,2.479,2.479,9.499,8.568
91.0,1601200.461,-1.6,1.6,2.7,4.2,3.009,3.014,11.724,10.605
92.0,1619496.873,-1.6,1.6,2.7,4.2,3.016,3.012,11.748,10.603
93.0,1631271.656,-1.6,1.6,2.7,4.2,2.484,2.481,9.516,8.574
94.0,1649648.765,-1.6,1.6,2.7,4.2,3.009,3.008,11.728,10.584
95.0,1667934.156,-1.6,1.6,2.7,4.2,3.01,3.007,11.731,10.581
96.0,1686228.026,-1.6,1.6,2.7,4.2,3.008,3.003,11.722,10.568
97.0,1704558.999,-1.728,1.6,2.689,4.2,3.004,3.008,11.709,10.583
98.0,1722879.965,-1.6,1.6,2.7,4.2,3.009,3.0,11.724,10.553
99.0,1741276.636,-1.6,1.6,2.7,4.2,2.999,2.985,11.697,10.489
100.0,1759713.594,-1.6,1.6,2.7,4.2,2.986,2.986,11.655,10.496
101.0,1778123.786,-1.6,1.6,2.7,4.2,2.988,3.006,11.661,10.567
102.0,1796412.154,-1.6,1.6,2.7,4.2,3.011,3.017,11.731,10.623
103.0,1814849.533,-1.6,1.6,2.7,4.2,3.014,2.981,11.745,10.477
104.0,1833239.08,-1.6,1.6,2.7,4.2,2.982,2.978,11.638,10.464
105.0,1851722.324,-1.689,1.6,2.691,4.2,2.978,2.98,11.628,10.468
106.0,1870155.741,-1.6,1.6,2.7,4.2,2.982,2.983,11.638,10.476
107.0,1881773.177,-1.6,1.6,2.7,4.2,2.444,2.451,9.374,8.454
108.0,1900220.197,-1.6,1.6,2.7,4.2,2.991,2.983,11.669,10.476
109.0,1918637.466,-1.6,1.6,2.7,4.2,2.985,2.979,11.647,10.464
110.0,1937130.805,-1.6,1.6,2.7,4.2,2.978,2.973,11.63,10.437
111.0,1955577.281,-1.6,1.6,2.7,4.2,2.975,2.978,11.614,10.456
112.0,1974033.17,-1.6,1.6,2.7,4.2,2.981,2.987,11.632,10.495
113.0,1992497.722,-1.6,1.6,2.7,4.2,2.986,2.968,11.65,10.414
114.0,2010978.252,-1.6,1.6,2.7,4.2,2.968,2.96,11.591,10.382
115.0,2029580.255,-1.6,1.6,2.7,4.2,2.962,2.987,11.574,10.474
116.0,2048116.093,-1.6,1.6,2.7,4.2,2.989,2.959,11.671,10.378
117.0,2066634.163,-1.6,1.6,2.7,4.2,2.96,2.958,11.564,10.379
118.0,2085251.795,-1.6,1.6,2.7,4.2,2.958,2.954,11.561,10.357
119.0,2103773.166,-1.6,1.6,2.7,4.2,2.959,2.973,11.562,10.432
120.0,2122337.88,-1.6,1.601,2.7,4.2,2.975,2.983,11.614,10.467
121.0,2140818.393,-1.6,1.6,2.7,4.2,2.988,2.998,11.654,10.537
122.0,2159209.771,-1.6,1.6,2.7,4.2,2.995,2.955,11.673,10.362
123.0,2177779.395,-1.6,1.6,2.7,4.2,2.955,2.955,11.549,10.357
124.0,2196348.565,-1.6,1.6,2.7,4.2,2.959,2.979,11.563,10.458
125.0,2214875.516,-1.6,1.6,2.7,4.2,2.983,2.989,11.637,10.497
126.0,2233283.683,-1.6,1.6,2.7,4.2,2.987,2.957,11.649,10.371
127.0,2251815.896,-1.6,1.6,2.7,4.2,2.959,2.966,11.558,10.4
128.0,2270406.805,-1.6,1.6,2.7,4.2,2.965,2.954,11.579,10.354
129.0,2288939.137,-1.6,1.6,2.7,4.2,2.958,2.972,11.555,10.428
130.0,2307424.44,-1.6,1.6,2.7,4.201,2.977,3.0,11.617,10.539
131.0,2325874.955,-1.6,1.6,2.7,4.2,2.999,2.968,11.684,10.408
132.0,2344473.242,-1.6,1.6,2.7,4.2,2.966,2.948,11.585,10.336
133.0,2363105.564,-1.6,1.6,2.7,4.2,2.948,2.94,11.53,10.302
134.0,2381770.421,-1.6,1.6,2.7,4.2,2.942,2.961,11.508,10.379
135.0,2400351.615,-1.6,1.6,2.698,4.2,2.965,2.975,11.58,10.439
136.0,2418871.575,-1.6,1.6,2.7,4.201,2.978,2.959,11.617,10.379
137.0,2437503.559,-1.6,1.6,2.7,4.2,2.956,2.946,11.55,10.319
138.0,2456054.561,-1.6,1.6,2.7,4.2,2.951,2.973,11.532,10.426
139.0,2474637.318,-1.6,1.6,2.7,4.201,2.976,2.989,11.615,10.496
140.0,2493135.944,-1.6,1.6,2.7,4.201,2.993,2.991,11.666,10.507
141.0,2511720.695,-3.377,1.601,2.609,4.201,2.99,2.991,11.661,10.502
142.0,2530424.205,-1.6,1.6,2.7,4.2,2.986,2.956,11.64,10.356
143.0,2549027.377,-1.6,1.6,2.7,4.2,2.96,2.967,11.562,10.402
144.0,2567517.949,-1.6,1.601,2.7,4.201,2.975,3.003,11.611,10.554
145.0,2585865.949,-1.6,1.601,2.7,4.201,3.006,2.969,11.705,10.435
146.0,2604467.739,-1.6,1.6,2.7,4.2,2.958,2.927,11.559,10.242
147.0,2623174.882,-1.6,1.6,2.7,4.2,2.926,2.932,11.453,10.253
148.0,2641937.944,-1.6,1.6,2.7,4.2,2.939,2.942,11.497,10.305
149.0,2660632.555,-1.6,1.6,2.699,4.2,2.942,2.952,11.504,10.339
150.0,2679429.479,-1.6,1.6,2.7,4.2,2.949,2.926,11.526,10.223
151.0,2697991.371,-1.6,1.6,2.7,4.2,2.928,2.92,11.453,10.208
152.0,2716713.053,-1.6,1.6,2.7,4.2,2.921,2.932,11.434,10.255
153.0,2735397.971,-1.6,1.6,2.7,4.2,2.934,2.935,11.477,10.27
154.0,2746685.509,-1.6,1.6,2.7,4.2,2.374,2.375,9.122,8.155
155.0,2765427.861,-1.6,1.6,2.7,4.2,2.934,2.914,11.48,10.183
156.0,2784212.753,-1.6,1.6,2.7,4.2,2.912,2.902,11.404,10.131
157.0,2803021.231,-4.209,1.6,2.569,4.2,2.904,2.907,11.381,10.151
158.0,2821746.277,-1.6,1.6,2.7,4.2,2.909,2.914,11.395,10.184
159.0,2840497.521,-1.6,1.6,2.7,4.2,2.916,2.911,11.416,10.173
160.0,2859309.308,-1.6,1.6,2.7,4.2,2.911,2.91,11.4,10.168
161.0,2878084.764,-1.6,1.6,2.7,4.2,2.911,2.894,11.4,10.105
162.0,2889151.948,-1.6,1.6,2.7,4.2,2.317,2.333,8.92,7.995
163.0,2907981.221,-1.6,1.6,2.7,4.2,2.913,2.907,11.414,10.154
164.0,2926777.11,-1.6,1.6,2.7,4.2,2.909,2.903,11.393,10.15
165.0,2945600.318,-1.6,1.6,2.7,4.2,2.9,2.886,11.366,10.071
166.0,2964516.062,-1.6,1.6,2.7,4.2,2.885,2.881,11.315,10.048
167.0,2983366.744,-1.6,1.6,2.7,4.2,2.885,2.887,11.316,10.078
168.0,3002159.034,-1.6,1.6,2.7,4.2,2.888,2.888,11.323,10.077
169.0,3021061.45,-1.6,1.6,2.7,4.2,2.889,2.877,11.325,10.039
170.0,3039975.083,-1.6,1.6,2.7,4.2,2.875,2.867,11.279,9.991
171.0,3058855.647,-1.6,1.6,2.7,4.2,2.871,2.873,11.27,10.02
172.0,3077687.699,-1.6,1.6,2.7,4.2,2.876,2.879,11.284,10.045
173.0,3096539.961,-1.6,1.6,2.7,4.2,2.88,2.877,11.296,10.031
174.0,3115464.691,-1.6,1.6,2.7,4.2,2.88,2.897,11.298,10.12
175.0,3134237.942,-1.6,1.6,2.7,4.2,2.9,2.889,11.36,10.088
176.0,3153099.768,-1.6,1.6,2.7,4.2,2.891,2.899,11.334,10.125
177.0,3171964.913,-1.6,1.6,2.7,4.2,2.903,2.915,11.371,10.194
178.0,3190716.253,-1.6,1.6,2.7,4.201,2.919,2.925,11.421,10.244
179.0,3209613.811,-1.6,1.6,2.7,4.2,2.921,2.905,11.429,10.159
180.0,3228268.053,-1.6,1.6,2.7,4.2,2.904,2.883,11.371,10.065
181.0,3247124.522,-1.6,1.6,2.7,4.201,2.889,2.908,11.325,10.168
182.0,3265828.236,-1.6,1.6,2.7,4.201,2.909,2.907,11.386,10.168
183.0,3284642.795,-1.6,1.6,2.7,4.2,2.897,2.855,11.356,9.942
184.0,3303552.57,-1.6,1.6,2.7,4.2,2.852,2.844,11.198,9.895
185.0,3322483.141,-1.6,1.6,2.7,4.2,2.848,2.852,11.19,9.932
186.0,3341397.835,-1.6,1.6,2.7,4.2,2.855,2.861,11.21,9.969
187.0,3360228.499,-1.6,1.6,2.7,4.2,2.863,2.854,11.235,9.944
188.0,3379103.421,-1.6,1.6,2.7,4.2,2.852,2.835,11.199,9.866
189.0,3398094.169,-1.6,1.6,2.7,4.2,2.836,2.84,11.15,9.883
190.0,3417056.287,-1.6,1.6,2.7,4.205,2.843,2.851,11.171,9.928
191.0,3435880.726,-1.6,1.6,2.7,4.2,2.853,2.85,11.203,9.929
192.0,3454721.533,-1.6,1.6,2.7,4.2,2.851,2.848,11.198,9.921
193.0,3473701.063,-1.6,1.6,2.7,4.2,2.845,2.83,11.178,9.847
194.0,3492675.564,-1.6,1.6,2.7,4.2,2.833,2.835,11.138,9.87
195.0,3511577.393,-1.6,1.6,2.7,4.2,2.837,2.844,11.152,9.904
196.0,3530373.334,-1.6,1.6,2.7,4.2,2.847,2.84,11.182,9.898
197.0,3541039.95,-1.6,1.6,2.7,4.2,2.232,2.241,8.612,7.645
198.0,3560144.817,-1.6,1.6,2.7,4.2,2.845,2.828,11.184,9.833
199.0,3579162.517,-1.6,1.6,2.7,4.2,2.832,2.845,11.139,9.908
200.0,3598051.506,-1.6,1.6,2.7,4.2,2.849,2.842,11.188,9.901
201.0,3608777.403,-1.6,1.6,2.7,4.2,2.241,2.259,8.642,7.711
202.0,3627721.917,-1.6,1.6,2.7,4.2,2.857,2.825,11.22,9.826
203.0,3646858.453,-1.6,1.6,2.7,4.2,2.826,2.825,11.117,9.827
204.0,3665890.551,-1.6,1.6,2.7,4.2,2.826,2.827,11.116,9.836
205.0,3684843.006,-1.6,1.6,2.7,4.2,2.83,2.835,11.127,9.873
206.0,3703754.644,-1.6,1.6,2.7,4.2,2.834,2.829,11.137,9.843
207.0,3722448.298,-1.6,1.6,2.7,4.2,2.829,2.816,11.118,9.792
208.0,3741412.189,-1.6,1.6,2.7,4.2,2.815,2.814,11.077,9.784
209.0,3760361.93,-1.6,1.6,2.7,4.2,2.818,2.822,11.086,9.82
210.0,3779350.484,-1.6,1.6,2.7,4.2,2.824,2.829,11.104,9.845
211.0,3798074.808,-1.6,1.6,2.7,4.2,2.831,2.816,11.125,9.803
212.0,3816994.793,-1.6,1.6,2.7,4.2,2.815,2.806,11.076,9.756
213.0,3836056.783,-1.6,1.6,2.7,4.2,2.806,2.815,11.045,9.79
214.0,3854707.911,-1.6,1.6,2.7,4.2,2.818,2.822,11.082,9.812
215.0,3873544.626,-1.6,1.6,2.7,4.2,2.825,2.819,11.104,9.811
216.0,3892360.44,-1.6,1.6,2.7,4.2,2.818,2.809,11.081,9.767
217.0,3911278.374,-1.6,1.6,2.7,4.2,2.81,2.809,11.053,9.769
218.0,3930203.082,-1.6,1.6,2.7,4.2,2.813,2.822,11.067,9.822
219.0,3948988.042,-1.6,1.6,2.7,4.2,2.823,2.82,11.094,9.814
220.0,3967826.277,-1.6,1.6,2.7,4.2,2.821,2.806,11.087,9.758
221.0,3986691.002,-1.6,1.6,2.7,4.2,2.802,2.797,11.029,9.717
222.0,4005639.952,-3.22,1.6,2.613,4.2,2.798,2.798,11.014,9.723
223.0,4024959.843,-1.6,1.6,2.7,4.2,2.802,2.986,11.028,10.286
224.0,4044176.281,-1.6,1.6,2.7,4.2,2.826,2.8,11.14,9.733
225.0,4063301.556,-1.6,1.601,2.7,4.2,2.803,2.786,11.034,9.678
226.0,4082285.926,-1.6,1.6,2.7,4.2,2.788,2.791,10.98,9.696
227.0,4092729.391,-1.6,1.6,2.7,4.2,2.179,2.194,8.416,7.473
228.0,4111838.137,-1.6,1.6,2.7,4.2,2.811,2.789,11.068,9.702
229.0,4130853.125,-1.6,1.6,2.7,4.2,2.787,2.786,10.978,9.678
230.0,4149791.008,-1.6,1.6,2.7,4.2,2.787,2.789,10.977,9.693
231.0,4168662.867,-1.6,1.6,2.7,4.2,2.792,2.787,10.988,9.688
232.0,4187530.62,-1.6,1.6,2.7,4.2,2.789,2.793,10.981,9.705
233.0,4206226.205,-1.6,1.6,2.7,4.2,2.791,2.78,10.982,9.645
234.0,4225025.899,-1.6,1.6,2.7,4.2,2.781,2.775,10.952,9.632
235.0,4243986.282,-1.6,1.6,2.7,4.2,2.781,2.795,10.958,9.718
236.0,4262816.194,-1.6,1.6,2.7,4.2,2.795,2.786,10.995,9.673
237.0,4281627.334,-1.6,1.6,2.7,4.2,2.787,2.791,10.97,9.7
238.0,4300553.42,-1.6,1.6,2.7,4.2,2.787,2.76,10.973,9.57
239.0,4319500.95,-1.6,1.6,2.7,4.2,2.763,2.774,10.892,9.628
240.0,4338351.589,-1.6,1.6,2.7,4.2,2.777,2.771,10.939,9.619
241.0,4357196.572,-1.6,1.6,2.7,4.2,2.773,2.777,10.923,9.644
242.0,4375884.976,-1.6,1.6,2.7,4.2,2.778,2.761,10.939,9.582
243.0,4394895.756,-1.751,1.6,2.688,4.2,2.759,2.766,10.881,9.592
244.0,4413776.395,-1.6,1.6,2.7,4.2,2.769,2.764,10.912,9.591
245.0,4432249.017,-1.6,1.6,2.7,4.2,2.764,2.765,10.892,9.591
246.0,4451081.672,-1.6,1.6,2.7,4.2,2.768,2.764,10.904,9.589
247.0,4469973.731,-1.6,1.6,2.7,4.2,2.762,2.752,10.886,9.537
248.0,4488905.34,-1.6,1.6,2.7,4.2,2.753,2.756,10.86,9.557
249.0,4507793.282,-1.6,1.6,2.7,4.2,2.759,2.758,10.877,9.564
250.0,4526672.348,-1.6,1.6,2.7,4.2,2.759,2.759,10.874,9.566
251.0,4545531.398,-1.6,1.6,2.7,4.2,2.761,2.754,10.882,9.552
252.0,4555677.612,-1.6,1.6,2.7,4.2,2.113,2.128,8.173,7.218
253.0,4574843.013,-1.6,1.6,2.7,4.2,2.77,2.764,10.924,9.593
254.0,4593782.084,-1.6,1.6,2.7,4.2,2.764,2.757,10.89,9.563
255.0,4612804.098,-1.6,1.6,2.7,4.2,2.759,2.754,10.875,9.552
256.0,4631696.433,-1.6,1.6,2.7,4.2,2.755,2.752,10.861,9.544
257.0,4650633.249,-1.6,1.6,2.7,4.2,2.752,2.744,10.853,9.513
258.0,4669697.469,-1.6,1.6,2.7,4.2,2.746,2.754,10.837,9.556
259.0,4688433.548,-1.6,1.6,2.7,4.2,2.757,2.757,10.863,9.566
260.0,4707186.594,-1.6,1.6,2.7,4.2,2.758,2.757,10.867,9.565
261.0,4726036.799,-1.6,1.6,2.7,4.2,2.756,2.743,10.864,9.504
262.0,4744869.056,-1.6,1.6,2.7,4.2,2.742,2.733,10.818,9.469
263.0,4763718.451,-1.6,1.6,2.7,4.2,2.735,2.746,10.793,9.519
264.0,4782555.101,-1.6,1.6,2.7,4.2,2.748,2.741,10.834,9.503
265.0,4801349.702,-1.6,1.6,2.7,4.2,2.743,2.726,10.816,9.456
266.0,4820274.905,-1.6,1.6,2.7,4.2,2.726,2.73,10.768,9.457
267.0,4839136.531,-1.6,1.6,2.7,4.2,2.729,2.722,10.773,9.421
268.0,4858016.179,-1.6,1.6,2.7,4.2,2.725,2.726,10.756,9.441
269.0,4876838.473,-1.6,1.6,2.7,4.2,2.73,2.729,10.774,9.454
270.0,4890996.391,-1.6,1.6,3.386,4.2,2.731,0.791,10.778,2.99