File: Li-ion_Batteries/UL-PUR_N10-NA7_18650_NCA_23C_0-100_0.5-0.5C_g_cycle_data.csv
Cycle_Index,Test_Time (s),Min_Current (A),Max_Current (A),Min_Voltage (V),Max_Voltage (V),Charge_Capacity (Ah),Discharge_Capacity (Ah),Charge_Energy (Wh),Discharge_Energy (Wh)
1.0,14451.102,-1.6,1.6,2.7,4.2,1.393,3.032,5.681,10.691
2.0,32722.239,-1.6,1.6,2.7,4.2,3.033,3.023,11.813,10.655
3.0,50989.115,-1.6,1.6,2.7,4.2,3.025,3.017,11.786,10.626
4.0,69316.824,-1.6,1.6,2.7,4.2,3.018,3.022,11.764,10.651
5.0,87554.373,-1.6,1.6,2.7,4.2,3.024,3.027,11.78,10.667
6.0,105793.025,-1.6,1.6,2.7,4.2,3.029,3.021,11.795,10.643
7.0,124081.916,-1.6,1.6,2.7,4.2,3.022,3.027,11.774,10.667
8.0,142306.236,-1.6,1.6,2.7,4.2,3.03,3.023,11.799,10.651
9.0,160481.432,-1.6,1.6,2.7,4.2,3.024,3.013,11.779,10.617
10.0,178686.999,-1.6,1.6,2.7,4.2,3.014,3.021,11.744,10.641
11.0,196908.36,-1.6,1.6,2.7,4.2,3.021,3.017,11.768,10.621
12.0,215194.054,-1.6,1.6,2.7,4.2,3.018,3.012,11.758,10.603
13.0,233405.797,-1.6,1.6,2.7,4.2,3.013,2.994,11.741,10.531
14.0,251677.32,-1.6,1.6,2.7,4.2,2.995,2.994,11.684,10.533
15.0,269939.834,-1.6,1.6,2.7,4.2,2.996,2.996,11.685,10.535
16.0,288231.134,-1.6,1.6,2.7,4.2,2.997,2.994,11.688,10.52
17.0,306533.519,-1.6,1.6,2.7,4.2,2.994,2.976,11.679,10.457
18.0,324907.7,-1.6,1.6,2.7,4.2,2.976,2.985,11.623,10.49
19.0,343231.268,-1.6,1.6,2.7,4.2,2.988,2.983,11.659,10.484
20.0,361515.892,-1.6,1.6,2.7,4.2,2.985,2.982,11.648,10.479
21.0,373030.997,-1.6,1.6,2.7,4.2,2.427,2.424,9.308,8.352
22.0,391409.642,-1.6,1.6,2.7,4.2,2.977,2.97,11.626,10.43
23.0,409741.117,-1.6,1.6,2.7,4.2,2.973,2.976,11.61,10.457
24.0,421226.893,-1.6,1.6,2.7,4.2,2.419,2.418,9.28,8.329
25.0,439601.205,-1.6,1.6,2.7,4.2,2.976,2.97,11.624,10.43
26.0,457957.075,-1.6,1.6,2.7,4.2,2.971,2.962,11.606,10.4
27.0,476289.552,-1.6,1.6,2.7,4.2,2.965,2.961,11.59,10.396
28.0,494661.37,-1.6,1.6,2.7,4.2,2.959,2.965,11.567,10.405
29.0,513099.462,-1.6,1.6,2.7,4.2,2.966,2.969,11.589,10.42
30.0,531424.737,-1.6,1.6,2.7,4.2,2.972,2.963,11.605,10.404
31.0,549808.181,-1.6,1.6,2.7,4.2,2.963,2.954,11.575,10.364
32.0,568223.468,-1.6,1.6,2.7,4.2,2.954,2.947,11.549,10.337
33.0,586649.209,-1.6,1.6,2.7,4.2,2.949,2.952,11.531,10.358
34.0,605024.646,-1.6,1.6,2.7,4.2,2.952,2.946,11.544,10.33
35.0,623426.485,-1.6,1.6,2.7,4.2,2.947,2.946,11.525,10.329
36.0,641858.979,-1.6,1.6,2.7,4.2,2.947,2.941,11.526,10.31
37.0,660285.9,-1.6,1.6,2.7,4.2,2.941,2.942,11.506,10.316
38.0,678777.894,-1.6,1.6,2.7,4.2,2.943,2.937,11.514,10.298
39.0,697251.419,-1.6,1.6,2.7,4.2,2.937,2.925,11.492,10.245
40.0,715764.512,-1.6,1.6,2.7,4.2,2.926,2.929,11.457,10.263
41.0,734203.689,-1.6,1.6,2.7,4.2,2.931,2.929,11.47,10.258
42.0,752662.593,-1.6,1.6,2.7,4.2,2.929,2.925,11.464,10.243
43.0,771097.659,-1.6,1.6,2.7,4.2,2.926,2.921,11.455,10.232
44.0,789613.756,-1.6,1.6,2.7,4.2,2.922,2.919,11.443,10.223
45.0,808093.229,-1.6,1.6,2.7,4.2,2.92,2.92,11.437,10.224
46.0,826549.53,-1.6,1.6,2.7,4.2,2.921,2.917,11.437,10.214
47.0,845050.278,-1.6,1.6,2.7,4.2,2.918,2.916,11.429,10.211
48.0,863592.308,-1.6,1.6,2.7,4.2,2.915,2.913,11.42,10.192
49.0,882030.243,-1.6,1.6,2.7,4.2,2.918,2.93,11.425,10.266
50.0,900462.103,-1.6,1.6,2.7,4.2,2.931,2.929,11.47,10.261
51.0,919007.771,-1.6,1.6,2.7,4.2,2.927,2.909,11.46,10.179
52.0,937496.555,-1.6,1.6,2.698,4.2,2.908,2.911,11.395,10.187
53.0,956044.175,-1.6,1.6,2.7,4.2,2.911,2.905,11.406,10.162
54.0,974553.365,-1.6,1.6,2.7,4.2,2.907,2.901,11.39,10.151
55.0,993029.226,-1.6,1.6,2.7,4.2,2.903,2.901,11.378,10.15
56.0,1011521.985,-1.6,1.6,2.7,4.2,2.902,2.902,11.373,10.152
57.0,1030047.2,-1.6,1.6,2.7,4.2,2.903,2.899,11.376,10.141
58.0,1048727.113,-1.6,1.6,2.7,4.2,2.9,2.895,11.367,10.125
59.0,1067264.065,-1.6,1.6,2.7,4.2,2.895,2.894,11.352,10.121
60.0,1085696.46,-1.6,1.6,2.7,4.2,2.895,2.89,11.347,10.104
61.0,1104227.105,-1.6,1.6,2.7,4.2,2.892,2.891,11.337,10.108
62.0,1122754.132,-1.6,1.6,2.7,4.2,2.891,2.884,11.336,10.077
63.0,1141324.317,-1.6,1.6,2.7,4.2,2.885,2.889,11.317,10.098
64.0,1159887.251,-1.6,1.6,2.7,4.2,2.89,2.885,11.332,10.083
65.0,1178448.965,-1.6,1.6,2.7,4.2,2.886,2.886,11.321,10.087
66.0,1196983.517,-1.6,1.6,2.7,4.2,2.887,2.89,11.322,10.101
67.0,1215513.556,-1.6,1.6,2.7,4.2,2.891,2.885,11.336,10.084
68.0,1234106.699,-1.6,1.6,2.7,4.2,2.886,2.882,11.317,10.07
69.0,1252656.435,-1.6,1.6,2.7,4.2,2.884,2.885,11.312,10.084
70.0,1271207.214,-1.6,1.6,2.7,4.2,2.886,2.888,11.32,10.095
71.0,1289744.991,-1.6,1.6,2.7,4.2,2.888,2.877,11.325,10.051
72.0,1308346.655,-1.6,1.6,2.7,4.2,2.877,2.875,11.291,10.044
73.0,1326940.64,-1.6,1.6,2.7,4.2,2.877,2.872,11.289,10.033
74.0,1345517.943,-1.6,1.6,2.7,4.2,2.874,2.871,11.279,10.027
75.0,1356346.885,-1.6,1.6,2.7,4.2,2.271,2.274,8.751,7.781
76.0,1374967.422,-1.6,1.6,2.7,4.2,2.874,2.865,11.284,10.001
77.0,1385751.61,-1.6,1.6,2.7,4.2,2.26,2.265,8.711,7.748
78.0,1404483.097,-1.6,1.6,2.7,4.2,2.869,2.865,11.271,10.0
79.0,1423095.245,-1.6,1.6,2.7,4.2,2.866,2.86,11.254,9.982
80.0,1441745.954,-1.6,1.6,2.7,4.2,2.86,2.861,11.236,9.986
81.0,1460387.259,-1.6,1.6,2.7,4.2,2.862,2.855,11.241,9.962
82.0,1479027.333,-1.6,1.6,2.7,4.2,2.856,2.853,11.218,9.952
83.0,1497686.479,-1.6,1.6,2.7,4.2,2.854,2.852,11.215,9.951
84.0,1516307.682,-1.6,1.6,2.7,4.2,2.853,2.85,11.208,9.941
85.0,1534896.558,-1.6,1.6,2.7,4.2,2.851,2.851,11.202,9.945
86.0,1553521.086,-1.6,1.6,2.7,4.2,2.851,2.846,11.201,9.925
87.0,1572206.815,-1.6,1.6,2.7,4.2,2.847,2.845,11.188,9.923
88.0,1590821.662,-1.6,1.6,2.7,4.2,2.847,2.845,11.188,9.923
89.0,1609469.803,-1.6,1.6,2.7,4.2,2.845,2.847,11.183,9.927
90.0,1628115.846,-1.6,1.6,2.7,4.2,2.848,2.842,11.192,9.907
91.0,1646712.192,-1.6,1.6,2.7,4.2,2.843,2.838,11.173,9.896
92.0,1665378.279,-1.6,1.6,2.7,4.2,2.84,2.84,11.164,9.904
93.0,1684163.971,-1.6,1.6,2.7,4.2,2.844,2.835,11.181,9.887
94.0,1702799.173,-1.6,1.6,2.7,4.2,2.832,2.836,11.14,9.884
95.0,1721451.31,-1.6,1.6,2.7,4.2,2.837,2.834,11.154,9.878
96.0,1740067.831,-1.6,1.6,2.7,4.2,2.834,2.831,11.144,9.866
97.0,1758709.233,-1.6,1.6,2.7,4.2,2.833,2.832,11.141,9.871
98.0,1777345.523,-1.6,1.6,2.7,4.2,2.833,2.829,11.14,9.857
99.0,1795981.076,-1.6,1.6,2.699,4.2,2.83,2.83,11.131,9.862
100.0,1814637.661,-1.6,1.6,2.7,4.2,2.83,2.829,11.131,9.856
101.0,1833254.555,-1.6,1.6,2.7,4.2,2.829,2.821,11.126,9.827
102.0,1851971.853,-1.6,1.6,2.7,4.2,2.822,2.825,11.105,9.839
103.0,1870574.454,-1.6,1.6,2.7,4.2,2.825,2.822,11.113,9.827
104.0,1889177.797,-1.6,1.6,2.7,4.2,2.825,2.822,11.111,9.828
105.0,1907827.683,-1.6,1.6,2.7,4.2,2.821,2.821,11.101,9.826
106.0,1918351.737,-1.6,1.6,2.7,4.2,2.203,2.206,8.504,7.526
107.0,1937177.298,-1.6,1.6,2.7,4.2,2.824,2.821,11.119,9.823
108.0,1955849.798,-1.6,1.6,2.7,4.2,2.822,2.816,11.105,9.805
109.0,1974556.12,-1.6,1.6,2.7,4.2,2.818,2.821,11.091,9.821
110.0,1993238.032,-1.6,1.6,2.7,4.2,2.82,2.816,11.094,9.803
111.0,2011869.255,-1.6,1.6,2.7,4.2,2.816,2.81,11.083,9.776
112.0,2030535.0,-1.6,1.6,2.7,4.2,2.811,2.809,11.066,9.779
113.0,2049232.988,-1.6,1.6,2.7,4.2,2.81,2.806,11.062,9.765
114.0,2067854.646,-1.6,1.6,2.7,4.2,2.808,2.811,11.053,9.786
115.0,2086306.798,-1.6,1.6,2.7,4.2,2.811,2.806,11.065,9.763
116.0,2104959.278,-1.6,1.6,2.7,4.2,2.807,2.804,11.052,9.76
117.0,2123624.478,-1.6,1.6,2.7,4.2,2.804,2.801,11.041,9.746
118.0,2142279.302,-1.6,1.6,2.7,4.2,2.802,2.8,11.034,9.739
119.0,2160974.368,-1.6,1.6,2.7,4.2,2.8,2.802,11.027,9.75
120.0,2179632.528,-1.6,1.6,2.7,4.2,2.803,2.798,11.038,9.734
121.0,2198253.961,-1.6,1.6,2.7,4.2,2.799,2.798,11.021,9.732
122.0,2216861.02,-1.6,1.6,2.7,4.2,2.798,2.793,11.018,9.715
123.0,2235562.193,-1.6,1.6,2.7,4.2,2.796,2.805,11.015,9.762
124.0,2254174.604,-1.6,1.6,2.7,4.2,2.805,2.796,11.041,9.728
125.0,2272781.128,-1.6,1.6,2.7,4.2,2.797,2.795,11.015,9.721
126.0,2291235.911,-1.6,1.6,2.7,4.2,2.795,2.79,11.007,9.7
127.0,2309874.134,-1.6,1.6,2.7,4.2,2.79,2.786,10.991,9.683
128.0,2328451.647,-1.6,1.6,2.7,4.2,2.787,2.791,10.981,9.709
129.0,2347122.236,-1.6,1.6,2.7,4.2,2.792,2.795,11.0,9.723
130.0,2365790.542,-1.6,1.6,2.7,4.2,2.797,2.79,11.016,9.705
131.0,2384409.203,-1.6,1.6,2.7,4.2,2.788,2.788,10.984,9.692
132.0,2394769.393,-1.6,1.6,2.7,4.2,2.164,2.173,8.362,7.4
133.0,2413545.727,-1.6,1.6,2.7,4.2,2.797,2.783,11.025,9.674
134.0,2432181.695,-1.6,1.6,2.7,4.2,2.783,2.779,10.969,9.654
135.0,2450782.92,-1.6,1.6,2.7,4.2,2.78,2.782,10.955,9.67
136.0,2469431.62,-1.6,1.6,2.7,4.2,2.783,2.779,10.966,9.66
137.0,2488153.859,-1.6,1.6,2.7,4.2,2.78,2.781,10.958,9.673
138.0,2506743.932,-1.6,1.6,2.7,4.2,2.782,2.779,10.964,9.658
139.0,2525393.753,-1.6,1.6,2.7,4.2,2.779,2.768,10.951,9.615
140.0,2544026.516,-1.6,1.6,2.7,4.2,2.768,2.77,10.916,9.623
141.0,2562693.65,-1.6,1.6,2.7,4.2,2.771,2.772,10.927,9.631
142.0,2581270.28,-1.6,1.6,2.7,4.2,2.773,2.77,10.934,9.627
143.0,2599847.491,-1.6,1.6,2.7,4.2,2.773,2.78,10.933,9.669
144.0,2618410.004,-1.6,1.6,2.7,4.2,2.778,2.769,10.942,9.619
145.0,2637029.243,-1.6,1.6,2.7,4.2,2.768,2.761,10.914,9.586
146.0,2655700.514,-1.6,1.6,2.7,4.2,2.76,2.759,10.889,9.576
147.0,2674311.499,-1.6,1.6,2.7,4.2,2.763,2.772,10.901,9.637
148.0,2692856.396,-1.6,1.6,2.7,4.2,2.773,2.768,10.93,9.619
149.0,2711471.381,-1.6,1.6,2.7,4.2,2.769,2.764,10.916,9.601
150.0,2730090.465,-1.6,1.6,2.7,4.2,2.763,2.759,10.896,9.579
151.0,2748750.952,-1.6,1.6,2.7,4.2,2.76,2.768,10.888,9.617
152.0,2758963.665,-1.6,1.6,2.7,4.2,2.134,2.137,8.251,7.264
153.0,2777728.99,-1.6,1.6,2.7,4.2,2.771,2.75,10.934,9.544
154.0,2796418.575,-1.6,1.6,2.7,4.2,2.751,2.748,10.86,9.539
155.0,2815041.484,-1.6,1.6,2.7,4.2,2.749,2.742,10.85,9.515
156.0,2833740.626,-1.6,1.6,2.7,4.2,2.741,2.742,10.824,9.512
157.0,2852387.727,-1.6,1.6,2.7,4.2,2.748,2.756,10.848,9.572
158.0,2870944.072,-1.6,1.6,2.7,4.2,2.756,2.751,10.866,9.554
159.0,2889542.411,-1.6,1.6,2.7,4.2,2.751,2.749,10.855,9.552
160.0,2908148.118,-1.6,1.6,2.7,4.2,2.749,2.738,10.85,9.499
161.0,2926768.611,-1.6,1.6,2.7,4.2,2.737,2.735,10.811,9.488
162.0,2945419.536,-1.6,1.6,2.7,4.2,2.737,2.736,10.809,9.494
163.0,2964038.594,-1.6,1.6,2.7,4.2,2.735,2.725,10.802,9.449
164.0,2982664.075,-1.6,1.6,2.7,4.2,2.726,2.73,10.774,9.467
165.0,3001272.48,-1.6,1.6,2.7,4.2,2.731,2.729,10.789,9.465
166.0,3019906.561,-1.6,1.6,2.7,4.2,2.729,2.725,10.783,9.449
167.0,3038499.556,-1.6,1.6,2.7,4.2,2.726,2.723,10.772,9.443
168.0,3057123.891,-1.6,1.6,2.7,4.2,2.724,2.718,10.764,9.42
169.0,3075805.135,-1.6,1.6,2.7,4.2,2.719,2.721,10.749,9.432
170.0,3094477.011,-1.6,1.6,2.7,4.2,2.724,2.729,10.765,9.466
171.0,3113102.953,-1.6,1.6,2.7,4.2,2.73,2.739,10.783,9.509
172.0,3131604.808,-1.6,1.6,2.7,4.2,2.74,2.725,10.813,9.453
173.0,3150175.83,-1.6,1.6,2.7,4.2,2.723,2.715,10.762,9.411
174.0,3168766.321,-1.6,1.6,2.7,4.2,2.714,2.711,10.731,9.394
175.0,3182110.051,-1.6,1.6,3.36,4.2,2.714,0.537,10.732,2.057