File: Li-ion_Batteries/UL-PUR_N20-NA5_18650_NCA_23C_0-100_0.5-0.5C_e_cycle_data.csv
Cycle_Index,Test_Time (s),Min_Current (A),Max_Current (A),Min_Voltage (V),Max_Voltage (V),Charge_Capacity (Ah),Discharge_Capacity (Ah),Charge_Energy (Wh),Discharge_Energy (Wh)
1.0,9319.544,-1.6,1.6,2.7,4.263,0.05,3.366,0.187,11.831
2.0,28490.712,-1.6,1.6,2.7,4.2,3.356,3.346,12.926,11.774
3.0,47683.697,-1.6,1.6,2.7,4.2,3.349,3.342,12.891,11.755
4.0,66918.387,-1.6,1.6,2.7,4.2,3.344,3.34,12.875,11.746
5.0,86156.998,-1.6,1.6,2.7,4.2,3.343,3.339,12.871,11.74
6.0,105435.528,-1.6,1.6,2.7,4.2,3.341,3.338,12.866,11.731
7.0,124738.287,-1.6,1.6,2.7,4.2,3.34,3.337,12.864,11.725
8.0,144069.36,-1.6,1.6,2.7,4.2,3.34,3.336,12.864,11.719
9.0,163410.974,-1.6,1.6,2.7,4.2,3.339,3.336,12.859,11.713
10.0,182827.486,-1.6,1.6,2.7,4.2,3.338,3.335,12.86,11.706
11.0,202249.006,-1.6,1.6,2.7,4.2,3.338,3.335,12.86,11.706
12.0,221706.228,-1.6,1.6,2.7,4.2,3.337,3.334,12.857,11.695
13.0,241180.641,-1.6,1.6,2.7,4.2,3.336,3.334,12.857,11.697
14.0,260685.404,-1.6,1.6,2.7,4.2,3.336,3.333,12.853,11.687
15.0,280231.327,-1.6,1.6,2.7,4.2,3.335,3.332,12.853,11.681
16.0,299836.344,-1.6,1.6,2.7,4.2,3.334,3.331,12.852,11.672
17.0,319442.391,-1.6,1.6,2.7,4.2,3.334,3.331,12.853,11.673
18.0,339101.518,-1.6,1.6,2.7,4.2,3.333,3.329,12.849,11.66
19.0,358806.029,-1.6,1.6,2.7,4.2,3.332,3.328,12.848,11.651
20.0,378540.117,-1.6,1.6,2.7,4.2,3.331,3.328,12.846,11.648
21.0,398272.792,-1.6,1.6,2.7,4.2,3.33,3.327,12.844,11.645
22.0,418084.574,-1.6,1.6,2.7,4.2,3.329,3.326,12.839,11.629
23.0,437865.628,-1.6,1.6,2.7,4.2,3.328,3.326,12.84,11.635
24.0,457679.858,-1.6,1.6,2.7,4.2,3.328,3.325,12.839,11.626
25.0,472079.077,-1.6,1.6,2.7,4.2,2.831,2.832,10.755,9.717
26.0,486468.787,-1.6,1.6,2.7,4.2,2.825,2.825,10.729,9.687
27.0,506448.591,-1.6,1.6,2.7,4.2,3.325,3.322,12.838,11.603
28.0,526435.49,-1.6,1.6,2.7,4.2,3.324,3.321,12.835,11.598
29.0,546411.927,-1.6,1.6,2.7,4.2,3.323,3.32,12.831,11.595
30.0,566412.341,-1.6,1.6,2.7,4.2,3.324,3.321,12.832,11.597
31.0,586414.175,-1.6,1.6,2.7,4.2,3.322,3.32,12.829,11.59
32.0,606434.132,-1.6,1.6,2.7,4.2,3.322,3.319,12.826,11.581
33.0,626597.982,-1.6,1.6,2.7,4.2,3.32,3.317,12.822,11.569
34.0,646711.65,-1.6,1.6,2.7,4.2,3.319,3.317,12.822,11.569
35.0,666848.607,-1.6,1.6,2.7,4.2,3.319,3.316,12.819,11.563
36.0,687126.591,-1.6,1.6,2.7,4.2,3.317,3.313,12.814,11.538
37.0,707408.801,-1.6,1.6,2.7,4.2,3.315,3.313,12.813,11.539
38.0,727724.484,-1.6,1.6,2.7,4.2,3.314,3.312,12.81,11.532
39.0,748054.596,-1.6,1.6,2.7,4.2,3.313,3.311,12.808,11.529
40.0,768435.272,-1.6,1.6,2.7,4.2,3.313,3.309,12.804,11.517
41.0,788893.221,-1.6,1.6,2.7,4.2,3.311,3.308,12.801,11.504
42.0,809361.656,-1.6,1.6,2.7,4.2,3.31,3.307,12.801,11.503
43.0,829859.849,-1.6,1.6,2.7,4.2,3.309,3.306,12.799,11.495
44.0,850414.917,-1.6,1.6,2.7,4.2,3.309,3.304,12.795,11.483
45.0,870951.717,-1.6,1.6,2.7,4.2,3.306,3.304,12.79,11.48
46.0,891605.738,-1.6,1.6,2.7,4.2,3.305,3.302,12.786,11.466
47.0,912273.769,-1.6,1.6,2.7,4.2,3.303,3.3,12.784,11.459
48.0,932894.062,-1.6,1.6,2.7,4.2,3.304,3.3,12.783,11.457
49.0,953644.145,-1.6,1.6,2.7,4.2,3.302,3.299,12.78,11.451
50.0,974400.428,-1.6,1.6,2.7,4.2,3.301,3.298,12.776,11.441
51.0,988870.997,-1.6,1.6,2.7,4.2,2.767,2.767,10.536,9.409
52.0,1009754.661,-1.6,1.6,2.7,4.2,3.298,3.296,12.771,11.429
53.0,1030795.174,-1.6,1.6,2.7,4.2,3.297,3.292,12.766,11.402
54.0,1051887.433,-1.6,1.601,2.7,4.2,3.294,3.291,12.764,11.394
55.0,1072948.619,-1.6,1.6,2.7,4.2,3.294,3.291,12.762,11.397
56.0,1094025.157,-1.6,1.6,2.7,4.2,3.293,3.291,12.76,11.395
57.0,1115366.97,-1.6,1.6,2.7,4.2,3.292,3.287,12.755,11.369
58.0,1136541.31,-1.6,1.6,2.7,4.2,3.289,3.288,12.754,11.38
59.0,1157650.757,-1.601,1.6,2.7,4.2,3.292,3.289,12.751,11.384
60.0,1178937.494,-1.6,1.6,2.7,4.2,3.289,3.286,12.743,11.363
61.0,1200236.843,-1.6,1.6,2.7,4.2,3.288,3.285,12.743,11.36
62.0,1221519.382,-1.6,1.6,2.7,4.2,3.287,3.284,12.74,11.354
63.0,1242892.712,-1.6,1.6,2.7,4.2,3.286,3.282,12.738,11.339
64.0,1264337.933,-1.6,1.6,2.7,4.2,3.284,3.281,12.736,11.337
65.0,1285731.763,-1.6,1.6,2.7,4.2,3.284,3.282,12.737,11.344
66.0,1307158.324,-1.6,1.6,2.7,4.2,3.283,3.28,12.732,11.335
67.0,1328686.762,-1.6,1.6,2.7,4.2,3.282,3.278,12.725,11.315
68.0,1350333.767,-1.6,1.6,2.7,4.2,3.278,3.275,12.718,11.298
69.0,1372142.903,-1.6,1.6,2.7,4.2,3.277,3.273,12.715,11.277
70.0,1393950.6,-1.6,1.6,2.7,4.2,3.275,3.273,12.714,11.282
71.0,1415772.958,-1.6,1.6,2.7,4.2,3.274,3.27,12.709,11.268
72.0,1437643.994,-1.6,1.6,2.7,4.2,3.271,3.269,12.703,11.261
73.0,1459512.763,-1.6,1.6,2.7,4.2,3.27,3.267,12.699,11.254
74.0,1481399.118,-1.6,1.6,2.7,4.2,3.268,3.265,12.691,11.24
75.0,1503318.055,-1.6,1.6,2.7,4.2,3.267,3.263,12.684,11.232
76.0,1525184.169,-1.6,1.6,2.7,4.2,3.265,3.263,12.683,11.244
77.0,1546932.648,-1.6,1.6,2.7,4.2,3.267,3.264,12.683,11.254
78.0,1568771.474,-1.6,1.6,2.7,4.2,3.266,3.263,12.679,11.243
79.0,1590669.676,-1.6,1.6,2.7,4.2,3.264,3.26,12.674,11.228
80.0,1612631.052,-1.6,1.6,2.7,4.2,3.262,3.258,12.669,11.215
81.0,1634638.995,-1.6,1.6,2.7,4.2,3.26,3.257,12.662,11.206
82.0,1656692.098,-1.6,1.6,2.7,4.2,3.259,3.255,12.661,11.197
83.0,1678824.038,-1.6,1.6,2.7,4.2,3.256,3.252,12.655,11.176
84.0,1701135.152,-1.6,1.6,2.7,4.2,3.254,3.252,12.65,11.175
85.0,1715780.517,-1.6,1.6,2.7,4.2,2.669,2.667,10.199,8.965
86.0,1738233.147,-1.6,1.6,2.7,4.2,3.249,3.246,12.64,11.14
87.0,1760750.462,-1.6,1.6,2.7,4.2,3.249,3.245,12.64,11.134
88.0,1783292.565,-1.6,1.6,2.7,4.2,3.247,3.243,12.634,11.122
89.0,1805936.642,-1.6,1.6,2.7,4.2,3.245,3.24,12.628,11.107
90.0,1828534.686,-1.6,1.6,2.7,4.2,3.241,3.238,12.62,11.098
91.0,1851182.63,-1.6,1.6,2.7,4.2,3.242,3.239,12.613,11.103
92.0,1873996.234,-1.6,1.6,2.7,4.2,3.241,3.237,12.616,11.089
93.0,1896814.618,-1.6,1.6,2.7,4.2,3.239,3.235,12.612,11.078
94.0,1919589.145,-1.6,1.6,2.7,4.2,3.236,3.233,12.604,11.071
95.0,1942380.373,-1.6,1.601,2.7,4.2,3.235,3.232,12.601,11.064
96.0,1965290.649,-1.6,1.6,2.7,4.2,3.234,3.231,12.599,11.056
97.0,1988352.401,-1.6,1.6,2.7,4.2,3.232,3.227,12.591,11.03
98.0,2011519.282,-1.6,1.6,2.7,4.2,3.228,3.226,12.593,11.024
99.0,2034512.272,-1.601,1.6,2.7,4.2,3.228,3.228,12.588,11.039
100.0,2049019.368,-1.6,1.6,2.7,4.2,2.634,2.636,10.079,8.835
101.0,2071680.999,-1.6,1.6,2.7,4.2,3.232,3.23,12.585,11.059
102.0,2094404.155,-1.6,1.601,2.7,4.201,3.232,3.228,12.586,11.048
103.0,2117350.819,-1.6,1.6,2.7,4.201,3.228,3.225,12.575,11.029
104.0,2140176.848,-1.6,1.6,2.7,4.2,3.227,3.226,12.576,11.044
105.0,2163117.357,-1.6,1.6,2.7,4.201,3.228,3.223,12.572,11.023
106.0,2186087.243,-1.6,1.6,2.7,4.201,3.226,3.223,12.569,11.018
107.0,2209053.424,-1.6,1.6,2.7,4.201,3.225,3.222,12.567,11.015
108.0,2223751.257,-1.6,1.6,2.7,4.2,2.612,2.609,9.997,8.71
109.0,2247289.944,-1.6,1.6,2.7,4.2,3.216,3.213,12.548,10.943
110.0,2262095.169,-1.6,1.6,2.7,4.2,2.599,2.596,9.961,8.651
111.0,2285844.471,-1.6,1.601,2.7,4.2,3.212,3.211,12.545,10.93
112.0,2309753.451,-1.6,1.6,2.7,4.2,3.212,3.207,12.543,10.907
113.0,2333685.537,-1.6,1.6,2.7,4.2,3.211,3.206,12.542,10.904
114.0,2357680.341,-1.6,1.6,2.7,4.2,3.208,3.203,12.532,10.886
115.0,2381722.752,-1.6,1.6,2.7,4.2,3.208,3.204,12.531,10.888
116.0,2405821.069,-1.6,1.6,2.7,4.2,3.205,3.202,12.523,10.877
117.0,2429904.636,-1.6,1.6,2.7,4.2,3.204,3.199,12.518,10.862
118.0,2454196.888,-1.6,1.6,2.7,4.2,3.201,3.195,12.51,10.841
119.0,2478575.973,-1.6,1.6,2.7,4.2,3.198,3.194,12.508,10.838
120.0,2503117.046,-1.6,1.6,2.7,4.2,3.197,3.193,12.5,10.833
121.0,2527481.692,-1.6,1.6,2.7,4.2,3.196,3.193,12.494,10.84
122.0,2551910.496,-1.6,1.6,2.7,4.2,3.194,3.189,12.484,10.819
123.0,2576463.816,-1.6,1.601,2.7,4.2,3.19,3.186,12.473,10.802
124.0,2601143.111,-1.6,1.6,2.7,4.2,3.188,3.184,12.466,10.79
125.0,2625697.504,-1.6,1.6,2.7,4.201,3.185,3.181,12.456,10.783
126.0,2650463.791,-1.601,1.6,2.7,4.2,3.184,3.179,12.453,10.781
127.0,2675379.316,-1.6,1.6,2.7,4.201,3.18,3.176,12.442,10.755
128.0,2700275.231,-1.6,1.6,2.7,4.2,3.178,3.174,12.438,10.748
129.0,2725161.703,-1.6,1.6,2.7,4.2,3.174,3.17,12.426,10.727
130.0,2750129.924,-1.6,1.6,2.7,4.2,3.171,3.167,12.411,10.709
131.0,2775260.877,-1.6,1.6,2.7,4.2,3.169,3.162,12.407,10.676
132.0,2800398.342,-1.6,1.6,2.7,4.2,3.163,3.16,12.398,10.674
133.0,2825577.895,-1.6,1.6,2.7,4.2,3.162,3.158,12.389,10.671
134.0,2850581.579,-1.6,1.6,2.7,4.2,3.161,3.158,12.386,10.686
135.0,2875376.081,-1.6,1.6,2.7,4.2,3.162,3.158,12.378,10.692
136.0,2900273.915,-1.6,1.6,2.7,4.2,3.16,3.155,12.376,10.67
137.0,2915123.002,-1.6,1.6,2.7,4.2,2.511,2.516,9.648,8.33
138.0,2940045.673,-1.6,1.6,2.7,4.201,3.16,3.151,12.375,10.654
139.0,2964974.429,-1.6,1.6,2.7,4.2,3.154,3.148,12.353,10.641
140.0,2989896.042,-1.6,1.6,2.7,4.201,3.15,3.146,12.34,10.637
141.0,3014830.782,-1.6,1.6,2.7,4.201,3.149,3.145,12.338,10.63
142.0,3039745.497,-1.6,1.6,2.7,4.201,3.148,3.143,12.333,10.625
143.0,3064794.607,-1.6,1.6,2.7,4.2,3.143,3.137,12.319,10.595
144.0,3090205.993,-1.6,1.6,2.7,4.2,3.138,3.132,12.302,10.56
145.0,3115506.998,-1.6,1.6,2.7,4.2,3.133,3.129,12.29,10.544
146.0,3140838.85,-1.6,1.6,2.7,4.2,3.131,3.126,12.284,10.53
147.0,3166205.157,-1.6,1.6,2.7,4.2,3.127,3.123,12.273,10.516
148.0,3191523.734,-1.6,1.6,2.7,4.2,3.124,3.119,12.263,10.5
149.0,3216989.904,-1.6,1.6,2.7,4.2,3.121,3.116,12.249,10.487
150.0,3242568.425,-1.6,1.6,2.7,4.2,3.119,3.114,12.247,10.481
151.0,3268210.516,-1.6,1.6,2.7,4.2,3.117,3.114,12.243,10.475
152.0,3293663.567,-1.6,1.6,2.7,4.2,3.114,3.109,12.23,10.455
153.0,3319099.235,-1.6,1.6,2.7,4.2,3.111,3.106,12.22,10.443
154.0,3344579.2,-1.6,1.6,2.7,4.2,3.108,3.103,12.212,10.43
155.0,3370044.753,-1.601,1.6,2.7,4.2,3.107,3.104,12.204,10.446
156.0,3395396.73,-1.6,1.6,2.7,4.2,3.105,3.101,12.195,10.43
157.0,3420873.663,-1.6,1.6,2.7,4.2,3.102,3.098,12.184,10.412
158.0,3446387.252,-1.6,1.6,2.7,4.201,3.1,3.096,12.179,10.403
159.0,3471813.833,-1.6,1.6,2.7,4.2,3.096,3.092,12.157,10.389
160.0,3497273.591,-1.6,1.6,2.7,4.2,3.095,3.09,12.163,10.386
161.0,3522832.826,-1.6,1.6,2.7,4.2,3.092,3.087,12.151,10.377
162.0,3545480.026,-1.6,1.6,2.7,4.2,3.088,3.015,12.133,10.169
163.0,3565731.54,-1.6,1.6,2.7,4.2,3.018,2.704,11.877,9.324
164.0,3585075.01,-1.6,1.6,2.7,4.201,2.706,2.687,10.707,9.268
165.0,3604381.91,-1.6,1.6,2.7,4.2,2.688,2.687,10.639,9.263
166.0,3623747.331,-1.6,1.6,2.7,4.2,2.691,2.684,10.646,9.249
167.0,3643173.025,-1.6,1.6,2.7,4.2,2.687,2.682,10.635,9.243
168.0,3662469.949,-1.6,1.6,2.7,4.201,2.684,2.673,10.624,9.214
169.0,3681677.561,-1.6,1.6,2.7,4.201,2.675,2.667,10.589,9.193
170.0,3700924.311,-1.6,1.6,2.7,4.201,2.669,2.663,10.568,9.174
171.0,3720171.508,-1.6,1.6,2.7,4.2,2.665,2.66,10.553,9.166
172.0,3739407.343,-1.6,1.6,2.7,4.2,2.663,2.667,10.548,9.185
173.0,3758712.133,-1.6,1.6,2.7,4.2,2.671,2.663,10.576,9.176
174.0,3777977.925,-1.6,1.6,2.7,4.2,2.665,2.66,10.549,9.164
175.0,3797264.119,-1.6,1.6,2.7,4.2,2.663,2.661,10.547,9.164
176.0,3816528.671,-1.6,1.6,2.7,4.2,2.663,2.663,10.548,9.172
177.0,3826140.375,-1.6,1.6,2.7,4.2,1.99,2.014,7.716,6.792
178.0,3845652.806,-1.6,1.6,2.7,4.2,2.692,2.662,10.664,9.168
179.0,3864965.666,-1.6,1.6,2.7,4.2,2.665,2.66,10.551,9.161
180.0,3884332.997,-1.6,1.6,2.7,4.2,2.662,2.655,10.544,9.14
181.0,3903630.556,-1.6,1.6,2.7,4.2,2.657,2.658,10.525,9.151
182.0,3922944.645,-1.6,1.6,2.7,4.2,2.661,2.661,10.541,9.167
183.0,3942172.157,-1.6,1.6,2.7,4.2,2.665,2.651,10.552,9.134
184.0,3961459.357,-1.6,1.6,2.7,4.2,2.653,2.652,10.507,9.134
185.0,3971008.752,-1.62,1.6,2.694,4.2,1.975,2.001,7.661,6.739
186.0,3990457.664,-1.6,1.6,2.7,4.2,2.683,2.647,10.631,9.113
187.0,4009713.749,-1.6,1.6,2.7,4.2,2.65,2.648,10.502,9.115
188.0,4028927.821,-1.6,1.6,2.7,4.2,2.65,2.647,10.497,9.11
189.0,4048108.615,-1.6,1.6,2.7,4.2,2.649,2.641,10.493,9.086
190.0,4067294.733,-1.6,1.6,2.7,4.2,2.643,2.644,10.475,9.096
191.0,4086509.93,-1.6,1.6,2.7,4.2,2.648,2.647,10.491,9.107
192.0,4105693.677,-1.601,1.6,2.7,4.2,2.65,2.646,10.497,9.104
193.0,4124921.094,-1.6,1.6,2.7,4.203,2.653,2.669,10.509,9.199
194.0,4144072.18,-1.6,1.6,2.7,4.201,2.618,2.669,10.349,9.198
195.0,4163265.108,-1.6,1.6,2.7,4.201,2.672,2.669,10.573,9.197
196.0,4182484.703,-1.6,1.6,2.7,4.201,2.671,2.67,10.573,9.2
197.0,4201706.722,-1.6,1.6,2.7,4.201,2.672,2.677,10.576,9.227
198.0,4211421.774,-1.6,1.6,2.7,4.2,2.013,2.037,7.799,6.872
199.0,4230793.109,-1.6,1.6,2.7,4.201,2.704,2.656,10.702,9.16
200.0,4250130.502,-1.6,1.6,2.7,4.2,2.639,2.58,10.467,8.837
201.0,4269504.361,-1.6,1.601,2.7,4.2,2.579,2.561,10.258,8.764
202.0,4289386.646,-1.6,1.601,2.7,4.2,2.57,2.601,10.236,8.92
203.0,4308628.556,-1.6,1.6,2.7,4.2,2.613,2.622,10.373,9.007
204.0,4327862.423,-1.6,1.6,2.7,4.2,2.627,2.63,10.421,9.037
205.0,4347052.984,-1.601,1.6,2.7,4.2,2.634,2.633,10.443,9.05
206.0,4366199.51,-1.6,1.6,2.7,4.2,2.632,2.612,10.435,8.965
207.0,4385423.78,-1.6,1.6,2.7,4.2,2.612,2.605,10.371,8.938
208.0,4404618.88,-1.6,1.6,2.7,4.2,2.609,2.605,10.362,8.942
209.0,4413871.471,-1.6,1.6,2.7,4.2,1.91,1.934,7.426,6.489
210.0,4433381.752,-1.6,1.601,2.7,4.2,2.63,2.592,10.45,8.889
211.0,4452789.539,-1.6,1.6,2.7,4.2,2.593,2.589,10.307,8.872
212.0,4472085.954,-1.6,1.6,2.7,4.201,2.596,2.603,10.318,8.931
213.0,4491345.437,-1.6,1.6,2.7,4.2,2.606,2.603,10.348,8.935
214.0,4510666.079,-1.6,1.6,2.7,4.2,2.606,2.609,10.348,8.952
215.0,4529918.996,-1.6,1.6,2.7,4.2,2.615,2.612,10.379,8.972
216.0,4549231.984,-1.6,1.6,2.7,4.2,2.616,2.62,10.383,8.998
217.0,4568609.798,-1.6,1.6,2.7,4.2,2.622,2.622,10.408,9.005
218.0,4587864.427,-1.6,1.601,2.7,4.2,2.623,2.613,10.405,8.975
219.0,4607219.724,-1.601,1.601,2.7,4.2,2.616,2.608,10.383,8.954
220.0,4626399.554,-1.6,1.601,2.7,4.2,2.608,2.586,10.352,8.863
221.0,4645763.877,-1.6,1.6,2.7,4.2,2.589,2.589,10.292,8.876
222.0,4665125.983,-1.6,1.6,2.7,4.2,2.592,2.591,10.299,8.883
223.0,4681359.061,-1.6,1.6,3.427,4.2,2.594,1.244,10.31,4.556