File: Li-ion_Batteries/UL-PUR_N15-EX4_18650_NCA_23C_0-100_0.5-0.5C_d_cycle_data.csv
Cycle_Index,Test_Time (s),Min_Current (A),Max_Current (A),Min_Voltage (V),Max_Voltage (V),Charge_Capacity (Ah),Discharge_Capacity (Ah),Charge_Energy (Wh),Discharge_Energy (Wh)
1.0,9382.878,-1.6,1.6,2.7,4.261,0.052,3.335,0.191,11.734
2.0,28498.062,-1.6,1.6,2.7,4.2,3.327,3.307,12.834,11.645
3.0,47635.876,-1.6,1.6,2.7,4.2,3.313,3.303,12.768,11.629
4.0,66809.458,-1.6,1.601,2.7,4.2,3.309,3.304,12.751,11.626
5.0,86009.452,-1.6,1.601,2.7,4.2,3.31,3.305,12.756,11.628
6.0,105249.2,-1.6,1.6,2.7,4.2,3.31,3.305,12.757,11.622
7.0,124510.046,-1.6,1.601,2.7,4.2,3.31,3.305,12.758,11.618
8.0,143815.065,-1.6,1.601,2.7,4.2,3.31,3.304,12.759,11.614
9.0,163136.974,-1.6,1.6,2.7,4.2,3.309,3.303,12.755,11.603
10.0,182540.119,-1.6,1.601,2.7,4.2,3.308,3.301,12.753,11.593
11.0,201934.141,-1.6,1.601,2.7,4.2,3.308,3.302,12.754,11.594
12.0,221391.686,-1.6,1.601,2.7,4.2,3.307,3.301,12.752,11.585
13.0,240868.471,-1.6,1.601,2.7,4.2,3.307,3.301,12.751,11.588
14.0,260371.807,-1.6,1.6,2.7,4.2,3.306,3.3,12.749,11.578
15.0,279913.68,-1.6,1.6,2.7,4.2,3.306,3.299,12.748,11.572
16.0,299512.136,-1.6,1.601,2.7,4.2,3.304,3.298,12.745,11.561
17.0,319109.925,-1.6,1.601,2.7,4.2,3.303,3.298,12.744,11.563
18.0,338797.749,-1.6,1.601,2.7,4.2,3.304,3.297,12.744,11.551
19.0,358523.347,-1.6,1.601,2.7,4.2,3.302,3.296,12.741,11.544
20.0,378270.193,-1.6,1.601,2.7,4.2,3.301,3.296,12.74,11.541
21.0,398031.772,-1.6,1.601,2.7,4.2,3.301,3.296,12.74,11.539
22.0,417896.222,-1.6,1.601,2.7,4.2,3.301,3.294,12.737,11.524
23.0,437745.806,-1.6,1.6,2.7,4.2,3.3,3.295,12.737,11.529
24.0,457658.767,-1.6,1.601,2.7,4.2,3.3,3.294,12.739,11.52
25.0,477610.134,-1.6,1.601,2.7,4.2,3.299,3.293,12.738,11.515
26.0,497656.889,-1.6,1.601,2.7,4.2,3.298,3.291,12.733,11.5
27.0,517730.148,-1.6,1.601,2.7,4.2,3.297,3.291,12.732,11.497
28.0,537813.077,-1.6,1.601,2.7,4.2,3.296,3.291,12.731,11.498
29.0,557809.667,-1.6,1.6,2.7,4.2,3.297,3.293,12.733,11.508
30.0,577837.374,-1.6,1.601,2.7,4.2,3.298,3.292,12.732,11.499
31.0,597923.053,-1.6,1.601,2.7,4.2,3.297,3.291,12.731,11.497
32.0,618062.59,-1.6,1.601,2.7,4.2,3.296,3.29,12.731,11.484
33.0,638230.481,-1.6,1.601,2.7,4.2,3.295,3.29,12.727,11.484
34.0,658405.944,-1.6,1.601,2.7,4.2,3.295,3.289,12.728,11.48
35.0,678689.37,-1.6,1.601,2.7,4.2,3.294,3.287,12.725,11.462
36.0,699021.093,-1.6,1.601,2.7,4.2,3.291,3.286,12.721,11.455
37.0,719365.643,-1.6,1.601,2.7,4.2,3.292,3.286,12.721,11.454
38.0,739735.899,-1.6,1.601,2.7,4.2,3.291,3.285,12.72,11.448
39.0,760134.241,-1.6,1.601,2.7,4.2,3.291,3.284,12.718,11.444
40.0,780625.5,-1.6,1.601,2.7,4.2,3.289,3.282,12.714,11.429
41.0,801122.782,-1.6,1.601,2.7,4.2,3.287,3.282,12.712,11.429
42.0,821642.693,-1.6,1.601,2.7,4.2,3.288,3.282,12.711,11.425
43.0,842140.507,-1.6,1.601,2.7,4.2,3.287,3.282,12.711,11.429
44.0,862735.165,-1.6,1.601,2.7,4.2,3.286,3.28,12.708,11.417
45.0,883385.64,-1.6,1.601,2.7,4.2,3.285,3.278,12.706,11.404
46.0,904144.567,-1.6,1.601,2.7,4.2,3.283,3.276,12.7,11.388
47.0,924828.183,-1.6,1.601,2.7,4.2,3.282,3.278,12.699,11.402
48.0,945631.875,-1.6,1.601,2.7,4.2,3.282,3.275,12.698,11.377
49.0,966386.855,-1.6,1.601,2.7,4.2,3.28,3.275,12.692,11.381
50.0,987200.795,-1.6,1.601,2.7,4.2,3.28,3.274,12.691,11.374
51.0,1008040.252,-1.6,1.601,2.7,4.2,3.279,3.273,12.689,11.369
52.0,1023098.974,-1.6,1.601,2.7,4.2,2.765,2.762,10.532,9.398
53.0,1044180.306,-1.6,1.601,2.7,4.2,3.277,3.269,12.688,11.34
54.0,1065210.791,-1.6,1.6,2.7,4.2,3.275,3.27,12.685,11.345
55.0,1086236.842,-1.6,1.601,2.7,4.2,3.275,3.269,12.681,11.341
56.0,1101304.476,-1.6,1.601,2.7,4.2,2.761,2.758,10.521,9.38
57.0,1122525.876,-1.6,1.6,2.7,4.2,3.273,3.266,12.682,11.318
58.0,1143512.193,-1.6,1.601,2.7,4.2,3.273,3.269,12.68,11.345
59.0,1164518.378,-1.6,1.601,2.7,4.2,3.275,3.268,12.677,11.335
60.0,1185717.685,-1.6,1.6,2.7,4.2,3.272,3.266,12.677,11.322
61.0,1206862.242,-1.6,1.601,2.7,4.2,3.271,3.265,12.672,11.318
62.0,1228070.833,-1.6,1.6,2.7,4.2,3.271,3.264,12.668,11.309
63.0,1249316.776,-1.6,1.6,2.7,4.2,3.269,3.263,12.664,11.302
64.0,1270580.887,-1.6,1.601,2.7,4.2,3.269,3.263,12.666,11.299
65.0,1291839.252,-1.6,1.601,2.7,4.2,3.269,3.263,12.665,11.302
66.0,1313058.859,-1.6,1.601,2.7,4.2,3.268,3.263,12.663,11.299
67.0,1334425.835,-1.6,1.601,2.7,4.2,3.267,3.261,12.66,11.283
68.0,1355888.74,-1.6,1.601,2.7,4.2,3.266,3.259,12.656,11.27
69.0,1377518.567,-1.6,1.601,2.7,4.2,3.263,3.255,12.651,11.245
70.0,1399085.316,-1.6,1.601,2.7,4.2,3.262,3.256,12.65,11.258
71.0,1420663.721,-1.6,1.601,2.7,4.2,3.261,3.254,12.645,11.244
72.0,1442303.619,-1.6,1.601,2.7,4.2,3.26,3.254,12.644,11.244
73.0,1463922.972,-1.6,1.601,2.7,4.2,3.259,3.253,12.641,11.24
74.0,1485641.439,-1.6,1.601,2.7,4.2,3.259,3.253,12.638,11.235
75.0,1507366.481,-1.6,1.601,2.7,4.2,3.259,3.251,12.635,11.223
76.0,1528936.387,-1.6,1.601,2.7,4.2,3.258,3.253,12.638,11.242
77.0,1550414.699,-1.6,1.601,2.7,4.201,3.26,3.255,12.639,11.254
78.0,1572000.218,-1.6,1.601,2.7,4.2,3.26,3.253,12.637,11.239
79.0,1593618.949,-1.6,1.601,2.7,4.2,3.258,3.252,12.633,11.234
80.0,1615274.092,-1.6,1.601,2.7,4.2,3.256,3.25,12.629,11.224
81.0,1637017.747,-1.6,1.601,2.7,4.2,3.256,3.249,12.627,11.216
82.0,1658847.734,-1.6,1.601,2.7,4.2,3.255,3.248,12.624,11.206
83.0,1680761.252,-1.6,1.601,2.7,4.2,3.253,3.246,12.62,11.196
84.0,1702653.456,-1.6,1.601,2.7,4.2,3.251,3.244,12.618,11.185
85.0,1724604.635,-1.6,1.601,2.7,4.2,3.249,3.243,12.612,11.172
86.0,1746626.673,-1.6,1.601,2.7,4.2,3.248,3.242,12.611,11.167
87.0,1761751.837,-1.6,1.601,2.7,4.2,2.702,2.699,10.321,9.109
88.0,1783699.062,-1.6,1.601,2.7,4.2,3.245,3.239,12.601,11.153
89.0,1805839.359,-1.6,1.601,2.7,4.2,3.244,3.237,12.6,11.14
90.0,1827863.781,-1.6,1.601,2.7,4.2,3.242,3.236,12.595,11.132
91.0,1849808.928,-1.6,1.601,2.7,4.2,3.241,3.236,12.588,11.136
92.0,1871908.271,-1.6,1.601,2.7,4.2,3.241,3.235,12.59,11.123
93.0,1894010.244,-1.6,1.601,2.7,4.2,3.24,3.234,12.589,11.126
94.0,1915983.546,-1.6,1.601,2.7,4.2,3.238,3.232,12.582,11.114
95.0,1938044.781,-1.6,1.601,2.7,4.2,3.238,3.231,12.58,11.108
96.0,1960159.832,-1.6,1.601,2.7,4.2,3.237,3.231,12.578,11.104
97.0,1982359.825,-1.6,1.601,2.7,4.2,3.235,3.228,12.574,11.086
98.0,2004791.101,-1.6,1.601,2.7,4.2,3.231,3.224,12.568,11.068
99.0,2027141.111,-1.6,1.601,2.7,4.2,3.231,3.227,12.567,11.078
100.0,2049091.288,-1.6,1.601,2.7,4.201,3.236,3.234,12.576,11.125
101.0,2070992.072,-1.6,1.601,2.7,4.201,3.238,3.233,12.575,11.121
102.0,2092948.336,-1.6,1.601,2.7,4.237,3.238,3.232,12.577,11.115
103.0,2114929.341,-1.6,1.601,2.7,4.201,3.235,3.228,12.564,11.093
104.0,2136867.275,-1.6,1.601,2.7,4.201,3.235,3.232,12.573,11.115
105.0,2158830.119,-1.6,1.601,2.7,4.201,3.235,3.229,12.565,11.098
106.0,2180847.375,-1.6,1.601,2.7,4.201,3.234,3.228,12.564,11.095
107.0,2202900.59,-1.6,1.601,2.7,4.201,3.233,3.227,12.562,11.089
108.0,2225098.254,-1.6,1.601,2.7,4.201,3.23,3.221,12.55,11.054
109.0,2247571.199,-1.6,1.601,2.7,4.2,3.224,3.218,12.542,11.031
110.0,2270001.387,-1.6,1.601,2.7,4.2,3.223,3.216,12.539,11.024
111.0,2285028.436,-1.6,1.601,2.7,4.2,2.655,2.652,10.16,8.902
112.0,2307576.068,-1.6,1.601,2.7,4.2,3.219,3.214,12.531,11.007
113.0,2330088.568,-1.6,1.601,2.7,4.2,3.22,3.214,12.534,11.009
114.0,2352696.926,-1.6,1.601,2.7,4.2,3.219,3.212,12.53,10.993
115.0,2375296.375,-1.6,1.601,2.7,4.2,3.218,3.212,12.527,10.996
116.0,2397978.655,-1.6,1.601,2.7,4.2,3.217,3.211,12.526,10.989
117.0,2420708.794,-1.6,1.601,2.7,4.201,3.216,3.21,12.525,10.988
118.0,2443390.097,-1.6,1.601,2.7,4.2,3.215,3.207,12.518,10.971
119.0,2466132.683,-1.6,1.601,2.7,4.2,3.211,3.205,12.507,10.958
120.0,2488702.593,-1.6,1.601,2.7,4.2,3.211,3.205,12.505,10.962
121.0,2511210.975,-1.6,1.601,2.7,4.2,3.211,3.208,12.506,10.977
122.0,2533704.744,-1.6,1.601,2.7,4.201,3.215,3.208,12.515,10.98
123.0,2556325.465,-1.6,1.601,2.7,4.201,3.213,3.207,12.51,10.972
124.0,2579164.825,-1.6,1.601,2.7,4.201,3.212,3.207,12.511,10.969
125.0,2601836.792,-1.6,1.601,2.7,4.201,3.209,3.202,12.497,10.949
126.0,2624412.753,-1.6,1.601,2.7,4.201,3.207,3.202,12.494,10.95
127.0,2646950.097,-1.6,1.601,2.7,4.201,3.208,3.201,12.493,10.945
128.0,2669660.144,-1.6,1.601,2.7,4.201,3.206,3.199,12.488,10.925
129.0,2692588.395,-1.6,1.601,2.7,4.201,3.205,3.2,12.491,10.931
130.0,2715379.135,-1.6,1.601,2.7,4.201,3.204,3.196,12.483,10.911
131.0,2730357.893,-1.6,1.601,2.7,4.2,2.621,2.619,10.042,8.755
132.0,2753323.028,-1.6,1.601,2.7,4.2,3.201,3.197,12.478,10.917
133.0,2776495.514,-1.6,1.601,2.7,4.2,3.202,3.191,12.479,10.874
134.0,2799572.267,-1.6,1.601,2.7,4.2,3.197,3.192,12.471,10.887
135.0,2822676.148,-1.6,1.601,2.7,4.2,3.198,3.192,12.471,10.883
136.0,2845577.628,-1.6,1.601,2.7,4.2,3.197,3.193,12.469,10.896
137.0,2868369.625,-1.6,1.601,2.7,4.201,3.201,3.197,12.477,10.918
138.0,2891308.51,-1.6,1.601,2.7,4.2,3.201,3.193,12.469,10.895
139.0,2914177.315,-1.6,1.601,2.7,4.201,3.199,3.193,12.468,10.902
140.0,2937020.373,-1.6,1.601,2.7,4.201,3.199,3.193,12.466,10.897
141.0,2959864.476,-1.6,1.601,2.7,4.201,3.197,3.191,12.462,10.888
142.0,2982763.075,-1.6,1.601,2.7,4.201,3.197,3.192,12.461,10.888
143.0,3005686.437,-1.6,1.601,2.7,4.201,3.197,3.191,12.462,10.888
144.0,3028523.279,-1.6,1.601,2.7,4.201,3.198,3.193,12.464,10.901
145.0,3051483.987,-1.6,1.601,2.7,4.201,3.196,3.189,12.455,10.879
146.0,3074566.066,-1.6,1.601,2.7,4.201,3.191,3.182,12.443,10.841
147.0,3097721.279,-1.6,1.601,2.7,4.2,3.187,3.181,12.441,10.827
148.0,3121055.232,-1.6,1.601,2.7,4.201,3.187,3.181,12.44,10.823
149.0,3144426.89,-1.6,1.601,2.7,4.201,3.185,3.178,12.431,10.811
150.0,3167871.411,-1.6,1.601,2.7,4.2,3.183,3.177,12.429,10.805
151.0,3191183.555,-1.6,1.601,2.7,4.2,3.18,3.174,12.417,10.794
152.0,3214623.088,-1.6,1.601,2.7,4.2,3.181,3.173,12.419,10.784
153.0,3238116.007,-1.6,1.601,2.7,4.201,3.179,3.172,12.417,10.777
154.0,3261659.497,-1.6,1.601,2.7,4.201,3.179,3.173,12.417,10.781
155.0,3285196.564,-1.6,1.601,2.7,4.2,3.177,3.169,12.41,10.767
156.0,3308816.575,-1.6,1.601,2.7,4.201,3.176,3.17,12.409,10.768
157.0,3332510.849,-1.6,1.601,2.7,4.2,3.175,3.169,12.405,10.763
158.0,3356068.817,-1.6,1.601,2.7,4.2,3.175,3.168,12.406,10.76
159.0,3379533.441,-1.6,1.601,2.7,4.201,3.175,3.17,12.401,10.772
160.0,3403045.423,-1.6,1.601,2.7,4.2,3.176,3.169,12.405,10.763
161.0,3426683.798,-1.6,1.601,2.7,4.201,3.173,3.167,12.398,10.751
162.0,3450133.434,-1.6,1.601,2.7,4.201,3.172,3.166,12.391,10.745
163.0,3473773.23,-1.6,1.601,2.7,4.201,3.172,3.164,12.391,10.74
164.0,3497295.576,-1.6,1.601,2.7,4.201,3.169,3.163,12.383,10.737
165.0,3520897.813,-1.6,1.601,2.7,4.2,3.169,3.162,12.381,10.731
166.0,3535865.993,-1.6,1.601,2.7,4.2,2.565,2.559,9.848,8.501
167.0,3555687.953,-1.6,1.601,2.7,4.201,3.166,2.814,12.375,9.784
168.0,3574753.326,-1.6,1.601,2.7,4.201,2.819,2.817,11.09,9.787
169.0,3593822.899,-1.6,1.601,2.7,4.201,2.822,2.811,11.098,9.76
170.0,3612777.944,-1.6,1.601,2.7,4.201,2.816,2.802,11.077,9.731
171.0,3631777.676,-1.6,1.601,2.7,4.201,2.806,2.804,11.042,9.727
172.0,3650790.369,-1.6,1.601,2.7,4.201,2.81,2.801,11.058,9.722
173.0,3669904.442,-1.6,1.601,2.7,4.201,2.806,2.808,11.042,9.742
174.0,3689074.479,-1.601,1.601,2.66,4.201,2.814,2.804,11.072,9.725
175.0,3708205.908,-1.6,1.601,2.7,4.201,2.809,2.792,11.055,9.68
176.0,3727264.908,-1.6,1.601,2.7,4.201,2.797,2.793,11.011,9.682
177.0,3746463.862,-1.6,1.601,2.7,4.201,2.801,2.802,11.023,9.71
178.0,3765588.601,-1.6,1.601,2.698,4.201,2.807,2.801,11.045,9.71
179.0,3784702.103,-1.6,1.601,2.7,4.201,2.805,2.795,11.041,9.685
180.0,3803831.378,-1.6,1.601,2.7,4.201,2.802,2.789,11.029,9.664
181.0,3823000.377,-1.6,1.601,2.7,4.201,2.796,2.795,11.006,9.684
182.0,3842064.975,-1.6,1.601,2.7,4.2,2.8,2.792,11.019,9.668
183.0,3861097.249,-1.6,1.601,2.7,4.201,2.798,2.788,11.013,9.657
184.0,3880180.819,-1.6,1.601,2.7,4.2,2.792,2.786,10.989,9.644
185.0,3899256.197,-1.6,1.601,2.7,4.2,2.793,2.784,10.995,9.64
186.0,3918356.02,-1.6,1.601,2.7,4.2,2.79,2.794,10.982,9.668
187.0,3937466.795,-1.6,1.601,2.7,4.201,2.801,2.788,11.023,9.651
188.0,3956561.947,-1.6,1.601,2.7,4.201,2.792,2.787,10.996,9.637
189.0,3975623.094,-1.6,1.601,2.7,4.2,2.793,2.786,10.995,9.646
190.0,3994862.93,-1.6,1.601,2.7,4.201,2.794,2.786,11.001,9.645
191.0,4014059.138,-1.6,1.601,2.7,4.2,2.792,2.785,10.992,9.642
192.0,4033217.273,-1.6,1.601,2.7,4.2,2.789,2.789,10.982,9.654
193.0,4052467.169,-1.6,1.601,2.7,4.2,2.796,2.785,11.006,9.636
194.0,4071707.738,-1.6,1.601,2.7,4.201,2.792,2.785,10.993,9.636
195.0,4090919.199,-1.6,1.601,2.7,4.2,2.791,2.784,10.99,9.636
196.0,4110167.055,-1.6,1.601,2.7,4.2,2.791,2.792,10.988,9.663
197.0,4120702.041,-1.6,1.601,2.7,4.2,2.203,2.211,8.509,7.509
198.0,4139426.544,-1.6,1.601,2.7,4.201,2.818,2.804,11.081,9.713
199.0,4158476.305,-1.6,1.601,2.7,4.201,2.812,2.806,11.057,9.72
200.0,4177539.021,-1.6,1.601,2.7,4.201,2.811,2.805,11.055,9.714
201.0,4196608.235,-1.6,1.601,2.699,4.201,2.811,2.807,11.053,9.723
202.0,4215662.904,-1.6,1.601,2.7,4.201,2.815,2.806,11.066,9.722
203.0,4234800.918,-1.6,1.601,2.7,4.201,2.813,2.765,11.064,9.57
204.0,4254206.288,-1.599,1.6,2.7,4.2,2.75,2.721,10.854,9.371
205.0,4273655.87,-1.599,1.6,2.7,4.2,2.724,2.706,10.769,9.311
206.0,4293264.593,-1.6,1.6,2.7,4.2,2.721,2.75,10.767,9.486
207.0,4312595.971,-1.6,1.601,2.7,4.2,2.763,2.764,10.896,9.548
208.0,4331898.53,-1.6,1.601,2.7,4.2,2.772,2.77,10.928,9.572
209.0,4351200.502,-1.6,1.601,2.7,4.2,2.778,2.771,10.948,9.577
210.0,4370497.091,-1.6,1.6,2.7,4.2,2.773,2.754,10.929,9.506
211.0,4389841.962,-1.6,1.601,2.7,4.2,2.759,2.75,10.883,9.491
212.0,4409067.106,-1.6,1.601,2.7,4.2,2.757,2.748,10.873,9.481
213.0,4428339.729,-1.6,1.6,2.7,4.2,2.752,2.738,10.859,9.437
214.0,4447611.853,-1.6,1.601,2.7,4.2,2.742,2.73,10.826,9.406
215.0,4466796.045,-1.6,1.601,2.7,4.201,2.74,2.748,10.822,9.476
216.0,4486033.378,-1.6,1.601,2.7,4.2,2.757,2.752,10.875,9.496
217.0,4505278.421,-1.6,1.601,2.7,4.2,2.759,2.747,10.882,9.473
218.0,4524477.015,-1.6,1.601,2.7,4.2,2.756,2.759,10.874,9.523
219.0,4543734.707,-1.6,1.601,2.7,4.2,2.764,2.757,10.9,9.519
220.0,4562994.915,-1.6,1.601,2.7,4.2,2.762,2.76,10.889,9.524
221.0,4582158.172,-1.6,1.601,2.7,4.2,2.767,2.757,10.905,9.514
222.0,4601351.984,-1.6,1.601,2.7,4.2,2.762,2.75,10.889,9.485
223.0,4620519.798,-1.6,1.601,2.7,4.2,2.757,2.736,10.873,9.432
224.0,4639867.119,-1.6,1.6,2.7,4.2,2.739,2.734,10.82,9.42
225.0,4659140.099,-1.6,1.601,2.7,4.2,2.741,2.734,10.822,9.417
226.0,4678351.13,-1.6,1.601,2.7,4.2,2.739,2.73,10.81,9.398
227.0,4697608.755,-1.6,1.601,2.7,4.2,2.735,2.72,10.793,9.36
228.0,4717105.305,-1.599,1.601,2.7,4.2,2.725,2.728,10.772,9.393
229.0,4736482.181,-1.6,1.601,2.7,4.2,2.737,2.73,10.809,9.4
230.0,4755792.042,-1.6,1.601,2.7,4.2,2.737,2.727,10.809,9.387
231.0,4775127.741,-1.599,1.601,2.695,4.2,2.731,2.718,10.79,9.353
232.0,4794646.247,-1.6,1.601,2.7,4.2,2.726,2.725,10.774,9.38
233.0,4813991.508,-1.6,1.601,2.7,4.2,2.732,2.723,10.79,9.375
234.0,4833286.351,-1.6,1.601,2.7,4.2,2.73,2.724,10.785,9.376
235.0,4845871.523,0.05,1.601,3.407,4.2,2.728,0.0,10.778,0.0