File: Li-ion_Batteries/UL-PUR_R10-NA11_18650_NCA_23C_2.5-96.5_0.5-0.5C_k_cycle_data.csv
Cycle_Index,Test_Time (s),Min_Current (A),Max_Current (A),Min_Voltage (V),Max_Voltage (V),Charge_Capacity (Ah),Discharge_Capacity (Ah),Charge_Energy (Wh),Discharge_Energy (Wh)
1.0,7563.364,-1.6,1.599,2.898,4.095,0.001,3.091,0.003,11.024
2.0,22726.946,-1.6,1.599,2.9,4.0,2.539,2.522,9.625,8.829
3.0,37828.656,-1.6,1.599,2.9,4.0,2.519,2.525,9.551,8.839
4.0,52937.836,-1.6,1.599,2.9,4.0,2.523,2.527,9.563,8.843
5.0,68042.265,-1.6,1.599,2.9,4.0,2.526,2.526,9.569,8.841
6.0,83150.526,-1.6,1.599,2.9,4.0,2.525,2.523,9.565,8.832
7.0,98227.277,-1.6,1.599,2.9,4.0,2.522,2.52,9.555,8.818
8.0,113306.07,-1.6,1.599,2.9,4.0,2.519,2.515,9.544,8.801
9.0,128396.355,-1.6,1.599,2.9,4.0,2.515,2.519,9.53,8.815
10.0,143467.925,-1.6,1.599,2.9,4.0,2.518,2.518,9.54,8.811
11.0,158538.892,-1.6,1.599,2.9,4.0,2.518,2.52,9.54,8.817
12.0,173612.787,-1.6,1.599,2.9,4.0,2.52,2.509,9.547,8.784
13.0,188673.478,-1.6,1.599,2.9,4.0,2.509,2.514,9.509,8.794
14.0,203760.673,-1.6,1.599,2.9,4.0,2.513,2.512,9.525,8.786
15.0,218840.285,-1.6,1.599,2.9,4.0,2.512,2.511,9.52,8.787
16.0,233872.07,-1.6,1.599,2.9,4.0,2.512,2.515,9.518,8.798
17.0,248944.94,-1.6,1.599,2.9,4.0,2.514,2.512,9.526,8.789
18.0,263979.657,-1.6,1.599,2.9,4.0,2.512,2.502,9.518,8.752
19.0,279017.105,-1.6,1.599,2.9,4.0,2.501,2.499,9.481,8.743
20.0,294054.863,-1.6,1.599,2.9,4.0,2.499,2.507,9.475,8.77
21.0,309098.421,-1.6,1.599,2.9,4.0,2.508,2.506,9.504,8.767
22.0,324148.448,-1.6,1.599,2.9,4.0,2.507,2.507,9.5,8.77
23.0,339210.009,-1.6,1.599,2.9,4.0,2.507,2.512,9.503,8.785
24.0,354280.776,-1.6,1.599,2.9,4.0,2.512,2.516,9.516,8.799
25.0,369346.853,-1.6,1.599,2.9,4.0,2.515,2.501,9.527,8.745
26.0,384380.223,-1.6,1.599,2.9,4.0,2.501,2.503,9.48,8.752
27.0,399417.069,-1.6,1.599,2.9,4.0,2.502,2.501,9.485,8.749
28.0,414450.717,-1.633,1.599,2.895,4.0,2.501,2.506,9.481,8.762
29.0,429493.072,-1.6,1.599,2.9,4.0,2.505,2.51,9.495,8.777
30.0,444560.168,-1.6,1.599,2.9,4.0,2.509,2.504,9.507,8.754
31.0,459610.765,-1.6,1.599,2.9,4.0,2.505,2.51,9.493,8.778
32.0,474657.908,-1.6,1.599,2.9,4.0,2.51,2.51,9.511,8.777
33.0,489694.073,-1.6,1.599,2.9,4.0,2.51,2.506,9.509,8.764
34.0,504734.108,-1.6,1.599,2.9,4.0,2.506,2.509,9.498,8.771
35.0,519772.689,-1.6,1.599,2.9,4.0,2.509,2.507,9.505,8.763
36.0,534831.408,-1.6,1.599,2.899,4.0,2.506,2.489,9.495,8.7
37.0,549856.758,-1.6,1.599,2.9,4.0,2.489,2.482,9.439,8.673
38.0,564872.352,-1.6,1.599,2.9,4.0,2.482,2.485,9.417,8.687
39.0,574523.359,-1.6,1.599,2.9,4.0,2.005,2.016,7.505,6.921
40.0,589595.595,-1.6,1.599,2.9,4.0,2.496,2.517,9.463,8.803
41.0,604582.868,-1.6,1.599,2.9,4.0,2.517,2.494,9.533,8.718
42.0,619596.98,-1.6,1.599,2.9,4.0,2.492,2.484,9.452,8.68
43.0,634621.903,-1.6,1.599,2.9,4.0,2.484,2.481,9.424,8.669
44.0,644185.735,-1.6,1.599,2.9,4.0,1.99,1.992,7.45,6.834
45.0,653766.534,-1.6,1.599,2.9,4.0,1.992,1.998,7.458,6.854
46.0,668845.419,-1.6,1.599,2.899,4.0,2.485,2.486,9.428,8.684
47.0,683908.63,-1.6,1.599,2.9,4.0,2.487,2.494,9.434,8.714
48.0,698950.345,-1.6,1.599,2.9,4.0,2.493,2.491,9.454,8.701
49.0,713971.689,-1.6,1.599,2.9,4.0,2.491,2.494,9.446,8.713
50.0,729047.173,-1.6,1.599,2.9,4.0,2.493,2.48,9.454,8.661
51.0,744100.075,-1.6,1.599,2.9,4.0,2.48,2.484,9.409,8.677
52.0,759159.856,-1.6,1.599,2.9,4.0,2.484,2.489,9.424,8.694
53.0,768799.072,-1.6,1.599,2.898,4.0,2.005,2.011,7.503,6.898
54.0,783822.961,-1.6,1.599,2.9,4.0,2.493,2.484,9.453,8.678
55.0,798899.29,-1.6,1.599,2.899,4.0,2.484,2.483,9.425,8.672
56.0,813995.481,-1.6,1.599,2.9,4.0,2.482,2.474,9.418,8.638
57.0,829067.832,-1.6,1.599,2.9,4.0,2.475,2.484,9.393,8.669
58.0,844172.249,-1.6,1.599,2.9,4.0,2.484,2.477,9.423,8.651
59.0,859236.246,-1.6,1.599,2.899,4.0,2.477,2.477,9.401,8.651
60.0,874269.006,-1.6,1.599,2.899,4.0,2.476,2.467,9.396,8.614
61.0,889322.952,-1.6,1.599,2.9,4.0,2.467,2.476,9.367,8.641
62.0,904367.26,-1.6,1.599,2.9,4.0,2.476,2.485,9.396,8.677
63.0,919427.359,-1.6,1.599,2.9,4.0,2.484,2.488,9.424,8.688
64.0,934481.627,-1.6,1.599,2.9,4.0,2.489,2.503,9.439,8.744
65.0,949494.775,-1.6,1.599,2.9,4.0,2.504,2.497,9.487,8.726
66.0,964597.918,-1.6,1.599,2.9,4.0,2.495,2.474,9.461,8.636
67.0,979669.398,-1.6,1.599,2.9,4.0,2.474,2.473,9.389,8.631
68.0,994746.458,-1.6,1.599,2.9,4.0,2.474,2.493,9.387,8.703
69.0,1009795.597,-1.6,1.599,2.9,4.0,2.493,2.499,9.452,8.727
70.0,1024832.672,-1.6,1.599,2.9,4.0,2.499,2.494,9.473,8.713
71.0,1039925.265,-1.6,1.599,2.9,4.0,2.492,2.486,9.452,8.68
72.0,1049514.083,-1.6,1.599,2.9,4.0,1.997,1.996,7.474,6.842
73.0,1064567.674,-1.6,1.599,2.899,4.0,2.483,2.473,9.421,8.633
74.0,1079665.744,-1.6,1.599,2.9,4.0,2.473,2.487,9.388,8.68
75.0,1094779.161,-1.6,1.599,2.9,4.0,2.487,2.501,9.435,8.731
76.0,1109851.114,-1.6,1.599,2.9,4.0,2.502,2.51,9.482,8.768
77.0,1124881.569,-1.6,1.599,2.9,4.0,2.509,2.488,9.502,8.686
78.0,1139965.291,-1.6,1.599,2.9,4.0,2.487,2.48,9.431,8.656
79.0,1155055.565,-1.616,1.599,2.896,4.0,2.479,2.472,9.407,8.623
80.0,1170122.289,-1.6,1.599,2.9,4.0,2.472,2.47,9.382,8.617
81.0,1185196.762,-1.6,1.599,2.9,4.0,2.47,2.481,9.376,8.656
82.0,1200283.944,-1.6,1.599,2.9,4.0,2.482,2.494,9.414,8.703
83.0,1215337.497,-1.6,1.599,2.9,4.0,2.494,2.488,9.453,8.687
84.0,1230429.283,-1.6,1.599,2.9,4.0,2.486,2.471,9.431,8.621
85.0,1245539.644,-1.6,1.599,2.9,4.0,2.471,2.483,9.38,8.662
86.0,1260626.513,-1.6,1.599,2.9,4.0,2.483,2.494,9.418,8.704
87.0,1275728.938,-1.6,1.599,2.9,4.0,2.495,2.507,9.457,8.751
88.0,1290800.282,-1.6,1.599,2.9,4.0,2.507,2.511,9.497,8.767
89.0,1305887.321,-1.6,1.599,2.9,4.0,2.51,2.501,9.506,8.732
90.0,1320870.323,-1.6,1.599,2.9,4.0,2.502,2.472,9.48,8.631
91.0,1335953.57,-1.6,1.599,2.9,4.0,2.469,2.477,9.375,8.64
92.0,1351046.128,-1.6,1.599,2.9,4.0,2.477,2.49,9.399,8.688
93.0,1366105.103,-1.6,1.599,2.9,4.0,2.493,2.522,9.449,8.806
94.0,1381157.716,-1.828,1.599,2.886,4.0,2.522,2.523,9.545,8.814
95.0,1396321.049,-1.6,1.599,2.9,4.0,2.518,2.468,9.533,8.607
96.0,1411393.536,-1.6,1.599,2.9,4.0,2.466,2.451,9.364,8.541
97.0,1426494.566,-1.6,1.599,2.9,4.0,2.451,2.457,9.311,8.564
98.0,1441590.959,-1.6,1.599,2.9,4.0,2.458,2.463,9.337,8.591
99.0,1456685.24,-1.6,1.599,2.9,4.0,2.462,2.472,9.349,8.62
100.0,1471720.027,-1.6,1.599,2.899,4.0,2.472,2.451,9.379,8.546
101.0,1486907.403,-1.6,1.599,2.9,4.0,2.45,2.461,9.312,8.579
102.0,1502018.1,-1.6,1.599,2.9,4.0,2.459,2.449,9.34,8.534
103.0,1517119.203,-1.6,1.599,2.9,4.0,2.449,2.456,9.307,8.559
104.0,1532203.601,-1.6,1.599,2.9,4.0,2.456,2.458,9.328,8.569
105.0,1547283.417,-1.6,1.599,2.9,4.0,2.459,2.455,9.338,8.56
106.0,1562332.17,-1.6,1.599,2.9,4.0,2.454,2.443,9.32,8.515
107.0,1577421.54,-2.938,1.599,2.831,4.0,2.442,2.432,9.284,8.471
108.0,1592541.809,-1.6,1.599,2.9,4.0,2.432,2.435,9.249,8.482
109.0,1607651.354,-1.6,1.599,2.9,4.0,2.435,2.44,9.258,8.499
110.0,1622756.76,-1.6,1.599,2.9,4.0,2.44,2.448,9.275,8.53
111.0,1637863.143,-1.6,1.599,2.9,4.0,2.448,2.444,9.304,8.517
112.0,1652955.761,-1.626,1.599,2.896,4.0,2.444,2.441,9.288,8.504
113.0,1668044.283,-1.6,1.599,2.9,4.0,2.441,2.438,9.279,8.495
114.0,1683158.73,-1.6,1.599,2.9,4.0,2.437,2.435,9.265,8.478
115.0,1698251.239,-1.6,1.599,2.9,4.0,2.435,2.441,9.258,8.504
116.0,1713361.558,-1.6,1.599,2.9,4.0,2.44,2.443,9.277,8.511
117.0,1728469.857,-1.6,1.599,2.9,4.0,2.444,2.441,9.288,8.505
118.0,1743590.864,-1.6,1.599,2.9,4.0,2.439,2.429,9.274,8.46
119.0,1758692.783,-1.6,1.599,2.9,4.0,2.429,2.42,9.239,8.426
120.0,1773820.418,-1.6,1.599,2.9,4.0,2.421,2.429,9.211,8.457
121.0,1788931.624,-1.6,1.599,2.9,4.0,2.429,2.43,9.239,8.462
122.0,1804063.569,-1.6,1.599,2.9,4.0,2.43,2.431,9.244,8.465
123.0,1819193.218,-1.68,1.599,2.893,4.0,2.43,2.426,9.243,8.445
124.0,1834277.203,-1.6,1.599,2.9,4.0,2.425,2.41,9.226,8.386
125.0,1849401.126,-1.6,1.599,2.9,4.0,2.409,2.418,9.174,8.414
126.0,1864531.396,-1.6,1.599,2.9,4.0,2.418,2.422,9.203,8.43
127.0,1879672.247,-1.6,1.599,2.9,4.0,2.422,2.427,9.216,8.449
128.0,1894804.398,-1.6,1.599,2.9,4.0,2.427,2.422,9.231,8.43
129.0,1909923.195,-1.6,1.599,2.9,4.0,2.422,2.434,9.217,8.475
130.0,1925015.476,-1.6,1.599,2.9,4.0,2.436,2.441,9.261,8.503
131.0,1940149.456,-1.6,1.599,2.9,4.0,2.439,2.438,9.271,8.489
132.0,1955296.139,-1.6,1.599,2.9,4.0,2.438,2.448,9.27,8.526
133.0,1970465.498,-1.6,1.599,2.9,4.0,2.448,2.464,9.304,8.584
134.0,1985581.819,-1.6,1.599,2.9,4.0,2.464,2.479,9.353,8.639
135.0,2000637.215,-1.6,1.599,2.9,4.0,2.477,2.448,9.395,8.526
136.0,2015716.308,-1.6,1.599,2.9,4.0,2.448,2.456,9.3,8.556
137.0,2030840.724,-3.932,1.599,2.785,4.0,2.454,2.441,9.319,8.498
138.0,2046030.356,-1.6,1.599,2.9,4.0,2.443,2.463,9.284,8.584
139.0,2061142.031,-1.6,1.599,2.9,4.0,2.463,2.467,9.352,8.597
140.0,2076224.248,-1.6,1.599,2.9,4.0,2.464,2.427,9.351,8.448
141.0,2091426.925,-1.6,1.599,2.9,4.0,2.426,2.41,9.23,8.387
142.0,2106633.531,-1.6,1.599,2.9,4.0,2.409,2.407,9.175,8.37
143.0,2121796.367,-1.6,1.599,2.9,4.0,2.406,2.412,9.164,8.389
144.0,2136930.675,-1.6,1.599,2.9,4.0,2.412,2.412,9.182,8.394
145.0,2146047.521,-1.6,1.599,2.9,4.0,1.884,1.9,7.068,6.483
146.0,2161252.693,-1.6,1.599,2.9,4.0,2.426,2.415,9.231,8.402
147.0,2176412.338,-1.6,1.599,2.9,4.0,2.415,2.402,9.192,8.352
148.0,2191599.931,-1.6,1.599,2.9,4.0,2.401,2.4,9.146,8.344
149.0,2206775.126,-1.6,1.599,2.9,4.0,2.4,2.408,9.142,8.374
150.0,2221966.094,-1.6,1.599,2.899,4.0,2.408,2.415,9.171,8.402
151.0,2237107.772,-1.6,1.599,2.9,4.0,2.414,2.415,9.189,8.401
152.0,2252289.944,-1.6,1.599,2.9,4.0,2.415,2.419,9.192,8.414
153.0,2267466.487,-1.6,1.599,2.899,4.0,2.417,2.398,9.199,8.337
154.0,2282654.221,-1.6,1.599,2.9,4.0,2.398,2.401,9.135,8.347
155.0,2297823.355,-1.6,1.599,2.9,4.0,2.401,2.408,9.146,8.373
156.0,2313013.489,-1.6,1.599,2.9,4.0,2.408,2.413,9.168,8.392
157.0,2328168.372,-1.6,1.599,2.9,4.0,2.413,2.419,9.185,8.415
158.0,2337191.139,-1.6,1.599,2.9,4.0,1.874,1.867,7.028,6.362
159.0,2352389.068,-1.6,1.599,2.9,4.0,2.408,2.393,9.172,8.318
160.0,2367584.466,-1.6,1.599,2.899,4.0,2.393,2.4,9.12,8.344
161.0,2382769.381,-1.6,1.599,2.9,4.0,2.401,2.42,9.146,8.418
162.0,2397970.906,-1.6,1.599,2.9,4.0,2.42,2.414,9.21,8.397
163.0,2413174.354,-1.6,1.599,2.9,4.0,2.414,2.417,9.189,8.409
164.0,2428353.482,-1.6,1.599,2.9,4.0,2.416,2.396,9.194,8.331
165.0,2443574.832,-1.6,1.599,2.9,4.0,2.395,2.401,9.125,8.348
166.0,2458790.181,-1.6,1.599,2.9,4.0,2.401,2.402,9.145,8.351
167.0,2473994.65,-1.6,1.599,2.899,4.0,2.403,2.406,9.151,8.364
168.0,2489172.137,-1.6,1.599,2.9,4.0,2.406,2.413,9.161,8.392
169.0,2504417.364,-1.6,1.599,2.9,4.0,2.412,2.408,9.184,8.372
170.0,2519533.499,-1.6,1.599,2.9,4.0,2.408,2.4,9.169,8.343
171.0,2534760.714,-1.6,1.599,2.9,4.0,2.398,2.393,9.138,8.316
172.0,2549962.249,-1.6,1.599,2.9,4.0,2.393,2.4,9.118,8.341
173.0,2558939.054,-1.6,1.599,2.9,4.0,1.856,1.865,6.966,6.356
174.0,2574154.42,-1.6,1.599,2.9,4.0,2.406,2.402,9.165,8.351
175.0,2589357.816,-1.6,1.599,2.9,4.0,2.404,2.417,9.154,8.404
176.0,2604540.446,-1.6,1.599,2.9,4.0,2.415,2.395,9.19,8.324
177.0,2619682.025,-1.6,1.599,2.9,4.0,2.395,2.389,9.124,8.301
178.0,2634922.341,-1.6,1.599,2.9,4.0,2.388,2.396,9.102,8.329
179.0,2643917.892,-1.6,1.599,2.9,4.0,1.853,1.876,6.957,6.39
180.0,2659255.28,-1.6,1.599,2.9,4.0,2.418,2.408,9.203,8.371
181.0,2674467.728,-1.6,1.599,2.9,4.0,2.409,2.403,9.172,8.355
182.0,2689647.152,-1.6,1.599,2.9,4.0,2.403,2.394,9.151,8.322
183.0,2704851.842,-1.6,1.599,2.9,4.0,2.393,2.396,9.119,8.327
184.0,2720093.01,-1.6,1.599,2.9,4.0,2.396,2.403,9.127,8.351
185.0,2735296.475,-1.6,1.599,2.9,4.0,2.403,2.411,9.153,8.385
186.0,2750505.399,-1.6,1.599,2.9,4.0,2.411,2.408,9.176,8.37
187.0,2765699.479,-1.6,1.599,2.899,4.0,2.407,2.395,9.162,8.328
188.0,2780934.427,-1.6,1.599,2.899,4.0,2.394,2.388,9.122,8.298
189.0,2796165.955,-1.6,1.599,2.9,4.0,2.387,2.386,9.099,8.29
190.0,2811388.937,-1.6,1.599,2.9,4.0,2.386,2.391,9.094,8.309
191.0,2825525.206,-1.6,1.599,2.9,4.0,2.392,1.905,9.113,6.781
192.0,2841037.258,-1.6,1.599,2.9,4.0,2.462,2.388,9.389,8.303
193.0,2856219.628,-1.6,1.599,2.899,4.0,2.389,2.376,9.101,8.257
194.0,2871404.212,-1.6,1.599,2.9,4.0,2.377,2.376,9.063,8.258
195.0,2886602.9,-1.6,1.599,2.9,4.0,2.376,2.384,9.061,8.286
196.0,2901789.175,-1.6,1.599,2.9,4.0,2.384,2.386,9.086,8.294
197.0,2916865.712,-1.6,1.599,2.9,4.0,2.386,2.38,9.093,8.275
198.0,2932086.677,-1.6,1.599,2.9,4.0,2.38,2.385,9.073,8.289
199.0,2947312.646,-1.6,1.599,2.9,4.0,2.385,2.384,9.089,8.287
200.0,2962487.861,-1.6,1.599,2.899,4.0,2.384,2.385,9.086,8.291
201.0,2977680.36,-1.6,1.599,2.9,4.0,2.385,2.385,9.089,8.288
202.0,2992874.845,-1.6,1.599,2.899,4.0,2.385,2.394,9.089,8.321
203.0,3008054.679,-1.6,1.599,2.9,4.0,2.392,2.378,9.112,8.258
204.0,3023199.828,-1.6,1.599,2.9,4.0,2.378,2.374,9.067,8.246
205.0,3038475.122,-1.6,1.599,2.9,4.0,2.373,2.391,9.052,8.309
206.0,3053650.416,-1.6,1.599,2.9,4.0,2.391,2.386,9.111,8.294
207.0,3068886.708,-1.6,1.599,2.9,4.0,2.385,2.383,9.09,8.282
208.0,3084110.534,-1.6,1.599,2.9,4.0,2.383,2.388,9.084,8.304
209.0,3099340.85,-1.6,1.599,2.9,4.0,2.386,2.36,9.095,8.196
210.0,3114529.574,-1.6,1.599,2.899,4.0,2.36,2.369,9.008,8.229
211.0,3129725.245,-1.6,1.599,2.899,4.0,2.37,2.375,9.038,8.251
212.0,3144948.693,-1.6,1.599,2.9,4.0,2.374,2.376,9.054,8.253
213.0,3160168.411,-1.6,1.599,2.899,4.0,2.376,2.378,9.06,8.262
214.0,3175314.267,-1.6,1.599,2.9,4.0,2.377,2.372,9.062,8.237
215.0,3190595.735,-1.6,1.599,2.9,4.0,2.371,2.364,9.043,8.209
216.0,3205813.907,-1.6,1.599,2.899,4.0,2.366,2.37,9.025,8.232
217.0,3221106.08,-1.6,1.599,2.9,4.0,2.37,2.388,9.039,8.289
218.0,3236442.176,-1.6,1.599,2.9,4.0,2.388,2.371,9.099,8.236
219.0,3251680.167,-1.6,1.599,2.9,4.0,2.371,2.369,9.041,8.227
220.0,3266892.02,-1.6,1.599,2.9,4.0,2.368,2.359,9.031,8.187
221.0,3282135.127,-1.6,1.599,2.9,4.0,2.359,2.359,9.002,8.191
222.0,3297369.396,-1.6,1.599,2.9,4.0,2.36,2.365,9.005,8.211
223.0,3312610.741,-1.6,1.599,2.9,4.0,2.364,2.365,9.02,8.213
224.0,3327868.303,-1.6,1.599,2.9,4.0,2.365,2.364,9.023,8.209
225.0,3343099.285,-1.6,1.599,2.9,4.0,2.365,2.367,9.02,8.22
226.0,3358383.233,-1.6,1.599,2.9,4.0,2.365,2.359,9.025,8.185
227.0,3373662.738,-1.6,1.599,2.9,4.0,2.359,2.371,9.002,8.231
228.0,3388870.344,-1.6,1.599,2.898,4.0,2.37,2.359,9.039,8.188
229.0,3404058.879,-1.6,1.599,2.9,4.0,2.359,2.357,9.001,8.182
230.0,3419282.518,-1.6,1.599,2.9,4.0,2.356,2.363,8.991,8.204
231.0,3428003.787,-1.6,1.599,2.9,4.0,1.799,1.808,6.763,6.147
232.0,3443268.479,-1.6,1.599,2.9,4.0,2.368,2.353,9.037,8.168
233.0,3451959.646,-1.6,1.599,2.9,4.0,1.79,1.804,6.729,6.134
234.0,3467332.449,-1.6,1.599,2.899,4.0,2.365,2.369,9.027,8.223
235.0,3482539.84,-1.6,1.599,2.9,4.0,2.372,2.367,9.043,8.221
236.0,3497791.051,-1.6,1.599,2.9,4.0,2.367,2.368,9.028,8.223
237.0,3513048.445,-1.6,1.599,2.9,4.0,2.368,2.369,9.031,8.226
238.0,3528261.382,-1.6,1.599,2.899,4.0,2.368,2.355,9.031,8.176
239.0,3543492.714,-1.6,1.599,2.899,4.0,2.355,2.35,8.987,8.157
240.0,3558776.28,-1.6,1.599,2.9,4.0,2.35,2.354,8.972,8.169
241.0,3573973.438,-1.6,1.599,2.899,4.0,2.354,2.357,8.984,8.182
242.0,3589219.057,-1.6,1.599,2.9,4.0,2.357,2.358,8.994,8.183
243.0,3604462.728,-1.6,1.599,2.9,4.0,2.357,2.356,8.996,8.178
244.0,3619739.945,-1.6,1.599,2.899,4.0,2.355,2.356,8.988,8.176
245.0,3634962.111,-1.6,1.599,2.899,4.0,2.355,2.34,8.989,8.116
246.0,3650208.992,-1.6,1.599,2.9,4.0,2.34,2.346,8.94,8.14
247.0,3658857.848,-1.6,1.599,2.9,4.0,1.779,1.796,6.69,6.107
248.0,3674158.837,-1.6,1.599,2.9,4.0,2.361,2.355,9.012,8.173
249.0,3689402.564,-1.6,1.599,2.9,4.0,2.355,2.358,8.989,8.186
250.0,3704616.166,-1.6,1.599,2.9,4.0,2.357,2.348,8.991,8.144
251.0,3719889.607,-1.6,1.599,2.9,4.0,2.347,2.338,8.962,8.111
252.0,3735234.058,-1.6,1.599,2.9,4.0,2.338,2.352,8.933,8.16
253.0,3750494.169,-1.6,1.599,2.899,4.0,2.352,2.35,8.978,8.154
254.0,3765761.262,-1.6,1.599,2.9,4.0,2.35,2.347,8.971,8.144
255.0,3780931.666,-1.6,1.599,2.9,4.0,2.347,2.346,8.961,8.142
256.0,3796228.519,-1.6,1.599,2.9,4.0,2.345,2.347,8.955,8.141
257.0,3811519.079,-1.6,1.599,2.9,4.0,2.347,2.329,8.962,8.076
258.0,3826885.144,-1.6,1.599,2.9,4.0,2.33,2.369,8.904,8.215
259.0,3842358.162,-1.6,1.599,2.9,4.0,2.368,2.337,9.036,8.103
260.0,3857668.1,-1.6,1.599,2.9,4.0,2.337,2.343,8.928,8.128
261.0,3872972.228,-1.6,1.599,2.9,4.0,2.342,2.328,8.943,8.07
262.0,3888268.09,-1.6,1.599,2.9,4.0,2.328,2.33,8.897,8.078
263.0,3903598.412,-1.6,1.599,2.9,4.0,2.33,2.336,8.903,8.1
264.0,3918891.239,-1.6,1.599,2.9,4.0,2.336,2.337,8.924,8.104
265.0,3934174.722,-1.6,1.599,2.9,4.0,2.337,2.339,8.926,8.113
266.0,3949410.218,-1.6,1.599,2.9,4.0,2.339,2.332,8.935,8.09
267.0,3964734.486,-1.6,1.599,2.899,4.0,2.331,2.327,8.908,8.067
268.0,3980009.14,-1.6,1.599,2.9,4.0,2.327,2.33,8.893,8.078
269.0,3995301.321,-1.6,1.599,2.9,4.0,2.33,2.334,8.903,8.095
270.0,4010589.744,-1.6,1.599,2.9,4.0,2.334,2.333,8.916,8.09
271.0,4025867.843,-1.6,1.599,2.9,4.0,2.333,2.334,8.914,8.096
272.0,4041048.986,-1.6,1.599,2.9,4.0,2.333,2.324,8.91,8.056
273.0,4056347.969,-1.6,1.599,2.9,4.0,2.324,2.326,8.884,8.065
274.0,4071727.078,-1.6,1.599,2.9,4.0,2.326,2.328,8.89,8.068
275.0,4086991.792,-1.6,1.599,2.9,4.0,2.329,2.327,8.899,8.069
276.0,4102320.022,-1.6,1.599,2.9,4.0,2.326,2.336,8.891,8.099
277.0,4117634.549,-1.796,1.599,2.886,4.0,2.335,2.337,8.92,8.102
278.0,4126131.579,-1.6,1.599,2.899,4.0,1.757,1.751,6.607,5.942
279.0,4141538.664,-2.294,1.599,2.86,4.0,2.328,2.323,8.9,8.05
280.0,4156846.664,-1.6,1.599,2.9,4.0,2.324,2.331,8.883,8.082
281.0,4172139.251,-1.6,1.599,2.9,4.0,2.331,2.333,8.906,8.091
282.0,4187403.08,-1.6,1.599,2.9,4.0,2.334,2.334,8.914,8.094
283.0,4202723.102,-1.6,1.599,2.9,4.0,2.333,2.339,8.915,8.111
284.0,4218183.064,-1.6,1.599,2.9,4.0,2.337,2.325,8.929,8.058
285.0,4233464.845,-1.6,1.599,2.9,4.0,2.326,2.32,8.89,8.043
286.0,4248799.37,-1.6,1.599,2.9,4.0,2.319,2.333,8.868,8.088
287.0,4264104.834,-1.6,1.599,2.9,4.0,2.333,2.332,8.911,8.082
288.0,4279399.819,-1.6,1.599,2.9,4.0,2.331,2.334,8.907,8.094
289.0,4294756.343,-1.6,1.599,2.9,4.0,2.334,2.326,8.916,8.068
290.0,4310041.381,-1.6,1.599,2.9,4.0,2.324,2.314,8.881,8.018
291.0,4325326.171,-1.6,1.599,2.9,4.0,2.314,2.324,8.85,8.056
292.0,4340624.959,-1.6,1.599,2.9,4.0,2.324,2.331,8.882,8.08
293.0,4349148.203,-1.6,1.599,2.9,4.0,1.755,1.764,6.603,5.99
294.0,4364505.292,-1.6,1.599,2.9,4.0,2.337,2.328,8.928,8.068
295.0,4379808.329,-1.6,1.599,2.899,4.0,2.328,2.33,8.896,8.088
296.0,4395112.467,-1.6,1.599,2.9,4.0,2.328,2.318,8.897,8.034
297.0,4410420.304,-1.6,1.599,2.9,4.0,2.318,2.322,8.862,8.049
298.0,4425707.998,-1.6,1.599,2.9,4.0,2.322,2.328,8.873,8.069
299.0,4440819.047,-1.6,1.599,2.9,4.0,2.327,2.323,8.892,8.047
300.0,4456095.727,-1.6,1.599,2.9,4.0,2.323,2.324,8.877,8.058
301.0,4471354.028,-1.6,1.599,2.9,4.0,2.324,2.318,8.88,8.033
302.0,4486655.179,-1.6,1.599,2.899,4.0,2.317,2.317,8.858,8.03
303.0,4501963.293,-1.6,1.599,2.9,4.0,2.318,2.32,8.86,8.04
304.0,4517240.293,-1.6,1.599,2.9,4.0,2.319,2.323,8.863,8.051
305.0,4532535.766,-1.6,1.599,2.9,4.0,2.322,2.324,8.876,8.053
306.0,4547825.757,-1.6,1.599,2.9,4.0,2.323,2.329,8.878,8.072
307.0,4563115.548,-1.6,1.599,2.9,4.0,2.327,2.311,8.892,8.009
308.0,4578433.174,-1.6,1.599,2.9,4.0,2.311,2.315,8.838,8.022
309.0,4593727.018,-1.6,1.599,2.9,4.0,2.315,2.317,8.851,8.028
310.0,4608998.62,-1.6,1.599,2.9,4.0,2.316,2.319,8.854,8.038
311.0,4624306.303,-1.6,1.599,2.9,4.0,2.318,2.317,8.859,8.03
312.0,4639561.44,-1.6,1.599,2.899,4.0,2.318,2.309,8.859,8.011
313.0,4654866.837,-1.6,1.599,2.899,4.0,2.307,2.306,8.825,7.99
314.0,4670064.802,-1.6,1.599,2.9,4.0,2.306,2.303,8.817,7.978
315.0,4685362.95,-1.6,1.599,2.9,4.0,2.303,2.318,8.811,8.033
316.0,4700643.314,-1.6,1.599,2.9,4.0,2.317,2.311,8.857,8.008
317.0,4715931.145,-1.6,1.599,2.9,4.0,2.311,2.316,8.836,8.027
318.0,4731135.388,-1.6,1.599,2.9,4.0,2.315,2.308,8.848,7.993
319.0,4746489.151,-1.6,1.599,2.9,4.0,2.307,2.308,8.826,7.993
320.0,4761785.043,-1.6,1.599,2.9,4.0,2.307,2.31,8.825,8.002
321.0,4777079.855,-1.6,1.599,2.9,4.0,2.309,2.313,8.831,8.014
322.0,4792362.687,-1.6,1.599,2.899,4.0,2.312,2.319,8.839,8.036
323.0,4800775.777,-1.6,1.599,2.9,4.0,1.735,1.736,6.527,5.889
324.0,4816114.135,-1.6,1.599,2.9,4.0,2.318,2.297,8.865,7.959
325.0,4831513.282,-1.6,1.599,2.9,4.0,2.295,2.297,8.785,7.953
326.0,4846848.441,-1.6,1.599,2.9,4.0,2.297,2.31,8.79,8.002
327.0,4862162.178,-1.6,1.599,2.9,4.0,2.31,2.315,8.834,8.023
328.0,4877467.036,-1.6,1.599,2.9,4.0,2.315,2.31,8.849,8.003
329.0,4892778.182,-1.6,1.599,2.9,4.0,2.31,2.312,8.833,8.011
330.0,4908069.987,-1.6,1.599,2.899,4.0,2.309,2.285,8.828,7.906
331.0,4923406.782,-1.6,1.599,2.9,4.0,2.286,2.297,8.753,7.954
332.0,4938712.604,-1.6,1.599,2.9,4.0,2.297,2.305,8.79,7.986
333.0,4953993.092,-1.6,1.599,2.9,4.0,2.305,2.306,8.815,7.989
334.0,4969300.205,-1.6,1.599,2.9,4.0,2.305,2.309,8.816,7.997
335.0,4984547.897,-1.6,1.599,2.9,4.0,2.308,2.29,8.825,7.936
336.0,4999898.205,-1.6,1.599,2.9,4.0,2.288,2.274,8.76,7.875
337.0,5015162.37,-1.6,1.599,2.9,4.0,2.274,2.294,8.706,7.943
338.0,5030488.236,-1.6,1.599,2.899,4.0,2.294,2.297,8.777,7.954
339.0,5038804.691,-1.6,1.599,2.9,4.0,1.709,1.718,6.439,5.833
340.0,5054248.358,-1.6,1.599,2.9,4.0,2.303,2.292,8.818,7.936
341.0,5069590.973,-1.6,1.599,2.9,4.0,2.292,2.293,8.77,7.94
342.0,5084928.611,-1.6,1.599,2.9,4.0,2.291,2.286,8.77,7.912
343.0,5100250.718,-1.6,1.599,2.9,4.0,2.286,2.287,8.75,7.917
344.0,5115618.519,-1.6,1.599,2.9,4.0,2.286,2.288,8.752,7.921
345.0,5130942.172,-1.6,1.599,2.9,4.0,2.288,2.29,8.758,7.929
346.0,5146248.532,-1.6,1.599,2.9,4.0,2.289,2.287,8.76,7.917
347.0,5161514.015,-1.6,1.599,2.9,4.0,2.288,2.285,8.756,7.911
348.0,5176870.406,-1.6,1.599,2.9,4.0,2.283,2.286,8.741,7.914
349.0,5192185.274,-1.6,1.599,2.9,4.0,2.286,2.28,8.749,7.889
350.0,5207479.714,-1.6,1.599,2.9,4.0,2.28,2.285,8.729,7.912
351.0,5222824.071,-1.6,1.599,2.9,4.0,2.285,2.285,8.747,7.908
352.0,5238162.119,-1.6,1.599,2.9,4.0,2.285,2.289,8.747,7.927
353.0,5253492.702,-1.6,1.599,2.9,4.0,2.288,2.283,8.756,7.899
354.0,5268834.139,-1.6,1.599,2.9,4.0,2.284,2.289,8.743,7.922
355.0,5284171.752,-1.6,1.599,2.9,4.0,2.289,2.283,8.762,7.905
356.0,5299474.909,-1.6,1.599,2.9,4.0,2.282,2.282,8.738,7.899
357.0,5314779.967,-1.6,1.599,2.9,4.0,2.282,2.283,8.736,7.901
358.0,5330122.894,-1.6,1.599,2.9,4.0,2.283,2.29,8.74,7.929
359.0,5345478.536,-1.6,1.599,2.9,4.0,2.288,2.273,8.757,7.866
360.0,5360822.983,-1.6,1.599,2.9,4.0,2.273,2.276,8.705,7.874
361.0,5376185.008,-1.6,1.599,2.9,4.0,2.277,2.287,8.721,7.919
362.0,5391583.293,-1.6,1.599,2.9,4.0,2.286,2.281,8.753,7.894
363.0,5406898.861,-1.6,1.599,2.9,4.0,2.281,2.279,8.732,7.888
364.0,5422090.957,-1.6,1.599,2.9,4.0,2.277,2.244,8.717,7.762
365.0,5437473.335,-1.6,1.599,2.9,4.0,2.245,2.269,8.612,7.847
366.0,5452749.041,-1.6,1.599,2.899,4.0,2.269,2.258,8.692,7.81
367.0,5468039.601,-1.6,1.599,2.9,4.0,2.258,2.276,8.655,7.878
368.0,5483386.951,-1.6,1.599,2.9,4.0,2.275,2.273,8.715,7.866
369.0,5498690.947,-1.6,1.599,2.9,4.0,2.272,2.276,8.703,7.879
370.0,5514126.342,-1.6,1.599,2.9,4.0,2.273,2.239,8.707,7.738
371.0,5529440.439,-1.6,1.599,2.9,4.0,2.241,2.267,8.597,7.844
372.0,5544824.248,-1.6,1.599,2.9,4.0,2.266,2.267,8.682,7.844
373.0,5560150.382,-1.6,1.599,2.9,4.0,2.268,2.269,8.687,7.849
374.0,5575475.526,-1.6,1.599,2.9,4.0,2.269,2.269,8.694,7.852
375.0,5590705.783,-1.6,1.599,2.9,4.0,2.268,2.251,8.689,7.79
376.0,5606045.276,-1.6,1.599,2.9,4.0,2.25,2.262,8.626,7.826
377.0,5621378.193,-1.6,1.599,2.9,4.0,2.263,2.265,8.67,7.836
378.0,5636685.488,-1.6,1.599,2.9,4.0,2.266,2.276,8.681,7.877
379.0,5651845.05,-1.6,1.599,2.9,4.0,2.275,2.271,8.708,7.851
380.0,5667149.964,-1.6,1.599,2.9,4.0,2.27,2.274,8.694,7.866
381.0,5682475.364,-1.6,1.599,2.9,4.0,2.271,2.235,8.702,7.723
382.0,5697891.524,-1.6,1.599,2.9,4.0,2.234,2.24,8.577,7.743
383.0,5713250.796,-1.6,1.599,2.899,4.0,2.241,2.251,8.599,7.783
384.0,5728591.393,-1.6,1.599,2.9,4.0,2.251,2.255,8.631,7.797
385.0,5743917.515,-1.6,1.599,2.899,4.0,2.255,2.253,8.643,7.793
386.0,5759253.629,-1.6,1.599,2.9,4.0,2.253,2.255,8.638,7.799
387.0,5774602.668,-1.6,1.599,2.9,4.0,2.253,2.243,8.639,7.754
388.0,5789989.443,-1.6,1.599,2.9,4.0,2.242,2.244,8.601,7.758
389.0,5805353.698,-1.6,1.599,2.899,4.0,2.245,2.25,8.611,7.779
390.0,5820702.94,-1.6,1.599,2.899,4.0,2.25,2.252,8.626,7.785
391.0,5836079.649,-1.6,1.599,2.899,4.0,2.251,2.252,8.632,7.788
392.0,5851342.453,-1.6,1.599,2.9,4.0,2.252,2.228,8.633,7.703
393.0,5866645.291,-1.6,1.599,2.9,4.0,2.228,2.251,8.55,7.783
394.0,5882014.167,-1.6,1.599,2.9,4.0,2.251,2.257,8.63,7.802
395.0,5897334.223,-1.6,1.599,2.9,4.0,2.257,2.252,8.651,7.789
396.0,5912674.004,-1.6,1.599,2.9,4.0,2.251,2.253,8.63,7.79
397.0,5928035.196,-1.6,1.599,2.9,4.0,2.252,2.263,8.633,7.825
398.0,5943425.167,-1.6,1.599,2.9,4.0,2.261,2.238,8.664,7.734
399.0,5958811.615,-1.6,1.599,2.9,4.0,2.239,2.241,8.587,7.742
400.0,5974210.027,-1.6,1.599,2.9,4.0,2.241,2.252,8.596,7.786
401.0,5989551.01,-1.6,1.599,2.9,4.0,2.252,2.249,8.632,7.779
402.0,6004888.359,-1.6,1.599,2.9,4.0,2.249,2.249,8.622,7.775
403.0,6020227.13,-2.578,1.599,2.843,4.0,2.249,2.25,8.622,7.78
404.0,6035755.934,-1.6,1.599,2.9,4.0,2.246,2.236,8.614,7.728
405.0,6051136.349,-1.6,1.599,2.9,4.0,2.235,2.232,8.579,7.709
406.0,6066460.577,-1.6,1.599,2.9,4.0,2.234,2.248,8.569,7.774
407.0,6081806.782,-1.6,1.599,2.9,4.0,2.248,2.25,8.618,7.781
408.0,6097131.865,-1.6,1.599,2.9,4.0,2.25,2.248,8.626,7.772
409.0,6112321.943,-1.6,1.599,2.9,4.0,2.246,2.219,8.61,7.663
410.0,6127707.177,-1.6,1.599,2.9,4.0,2.217,2.213,8.515,7.642
411.0,6135523.467,-1.6,1.599,2.9,4.0,1.585,1.619,5.993,5.467
412.0,6150955.872,-1.6,1.599,2.9,4.0,2.247,2.244,8.621,7.756
413.0,6166335.421,-1.6,1.599,2.9,4.0,2.243,2.241,8.603,7.747
414.0,6181673.006,-1.6,1.599,2.9,4.0,2.241,2.239,8.595,7.739
415.0,6196896.445,-1.6,1.599,2.899,4.0,2.238,2.219,8.585,7.67
416.0,6212358.148,-1.6,1.599,2.9,4.0,2.217,2.222,8.517,7.677
417.0,6227738.043,-1.6,1.599,2.9,4.0,2.221,2.237,8.528,7.728
418.0,6243081.633,-1.6,1.599,2.9,4.0,2.238,2.24,8.584,7.74
419.0,6258402.972,-1.6,1.599,2.9,4.0,2.238,2.234,8.578,7.718
420.0,6273745.018,-1.6,1.599,2.9,4.0,2.235,2.236,8.572,7.729
421.0,6289067.379,-1.6,1.599,2.899,4.0,2.236,2.232,8.577,7.712
422.0,6304449.482,-1.6,1.599,2.9,4.0,2.231,2.232,8.56,7.714
423.0,6319808.375,-1.6,1.599,2.9,4.0,2.232,2.236,8.565,7.728
424.0,6335157.844,-1.6,1.599,2.9,4.0,2.236,2.237,8.576,7.73
425.0,6350510.927,-1.815,1.599,2.885,4.0,2.236,2.236,8.577,7.729
426.0,6365851.094,-1.6,1.599,2.9,4.0,2.236,2.229,8.576,7.705
427.0,6381355.044,-1.6,1.599,2.9,4.0,2.226,2.232,8.548,7.711
428.0,6396708.983,-1.6,1.599,2.9,4.0,2.232,2.234,8.564,7.721
429.0,6412060.661,-1.6,1.599,2.9,4.0,2.234,2.233,8.569,7.717
430.0,6427381.994,-1.6,1.599,2.9,4.0,2.232,2.233,8.564,7.718
431.0,6442743.321,-1.6,1.599,2.9,4.0,2.233,2.237,8.566,7.731
432.0,6458036.239,-1.6,1.599,2.9,4.0,2.234,2.197,8.566,7.581
433.0,6473384.894,-1.6,1.599,2.9,4.0,2.197,2.229,8.441,7.68
434.0,6488263.877,-1.6,1.599,2.9,4.0,2.23,2.238,8.541,7.734
435.0,6503641.695,-1.6,1.599,2.9,4.0,2.238,2.228,8.585,7.696
436.0,6518939.952,-1.6,1.599,2.9,4.0,2.227,2.225,8.546,7.684
437.0,6534338.43,-1.651,1.599,2.894,4.0,2.225,2.238,8.539,7.73
438.0,6549745.802,-1.6,1.599,2.9,4.0,2.236,2.215,8.574,7.651
439.0,6565144.929,-1.6,1.599,2.9,4.0,2.215,2.209,8.507,7.628
440.0,6580604.747,-1.6,1.599,2.9,4.0,2.209,2.219,8.489,7.661
441.0,6595926.618,-1.6,1.599,2.9,4.0,2.219,2.224,8.517,7.683
442.0,6611263.426,-1.6,1.599,2.9,4.0,2.223,2.224,8.531,7.685
443.0,6626473.525,-1.6,1.599,2.9,4.0,2.224,2.2,8.533,7.599
444.0,6641794.43,-1.6,1.599,2.9,4.0,2.198,2.185,8.448,7.542
445.0,6657132.067,-5.152,1.599,2.72,4.0,2.184,2.2,8.399,7.587
446.0,6672454.459,-1.6,1.599,2.9,4.0,2.201,2.214,8.457,7.647
447.0,6687788.377,-1.6,1.599,2.9,4.0,2.214,2.221,8.501,7.674
448.0,6703104.812,-1.6,1.599,2.9,4.0,2.221,2.218,8.525,7.662
449.0,6718267.342,-1.6,1.599,2.9,4.0,2.217,2.19,8.508,7.557
450.0,6733705.61,-1.6,1.599,2.899,4.0,2.188,2.185,8.414,7.533
451.0,6749132.171,-1.6,1.599,2.9,4.0,2.186,2.212,8.406,7.64
452.0,6764480.184,-1.6,1.599,2.9,4.0,2.214,2.22,8.498,7.67
453.0,6779831.504,-1.6,1.599,2.9,4.0,2.22,2.221,8.521,7.673
454.0,6795132.405,-1.6,1.599,2.9,4.0,2.22,2.219,8.521,7.666
455.0,6805727.275,-1.6,1.599,3.414,4.0,2.215,0.141,8.508,0.536