File: Li-ion_Batteries/UL-PUR_R20-NA9_18650_NCA_23C_2.5-96.5_0.5-0.5C_i_cycle_data.csv
Cycle_Index,Test_Time (s),Min_Current (A),Max_Current (A),Min_Voltage (V),Max_Voltage (V),Charge_Capacity (Ah),Discharge_Capacity (Ah),Charge_Energy (Wh),Discharge_Energy (Wh)
1.0,63364.095,-1.61,1.599,2.9,4.164,0.002,3.088,0.008,10.987
2.0,78727.222,-1.6,1.6,2.9,4.0,2.549,2.534,9.67,8.856
3.0,94082.432,-1.6,1.6,2.9,4.0,2.532,2.525,9.607,8.822
4.0,103746.435,-1.6,1.6,2.9,4.0,2.014,2.013,7.541,6.902
5.0,119137.008,-1.6,1.6,2.9,4.0,2.522,2.521,9.572,8.807
6.0,134488.45,-1.6,1.6,2.9,4.0,2.524,2.511,9.58,8.772
7.0,149808.401,-1.601,1.6,2.9,4.0,2.512,2.516,9.536,8.786
8.0,165171.985,-1.6,1.6,2.9,4.0,2.518,2.515,9.557,8.782
9.0,180538.481,-1.6,1.6,2.9,4.0,2.517,2.518,9.553,8.794
10.0,195895.443,-1.6,1.6,2.9,4.0,2.52,2.516,9.562,8.786
11.0,211236.708,-1.6,1.6,2.9,4.0,2.518,2.514,9.558,8.78
12.0,220867.593,-1.6,1.6,2.9,4.0,2.006,2.006,7.508,6.879
13.0,236236.529,-1.6,1.6,2.9,4.0,2.516,2.509,9.55,8.759
14.0,251603.173,-1.6,1.6,2.9,4.0,2.511,2.505,9.534,8.745
15.0,266954.496,-1.6,1.6,2.9,4.0,2.508,2.511,9.522,8.766
16.0,282313.763,-1.6,1.6,2.9,4.0,2.513,2.509,9.539,8.756
17.0,297667.729,-1.6,1.6,2.9,4.0,2.51,2.505,9.53,8.742
18.0,313003.111,-1.6,1.6,2.9,4.0,2.508,2.505,9.52,8.745
19.0,328372.064,-1.6,1.6,2.9,4.0,2.507,2.502,9.519,8.73
20.0,343700.285,-1.6,1.6,2.9,4.0,2.504,2.503,9.508,8.734
21.0,359052.593,-1.601,1.6,2.9,4.0,2.506,2.503,9.514,8.736
22.0,374411.409,-1.6,1.6,2.9,4.0,2.506,2.501,9.514,8.728
23.0,389762.521,-1.6,1.6,2.9,4.0,2.504,2.503,9.506,8.735
24.0,405132.352,-1.6,1.6,2.9,4.0,2.504,2.497,9.509,8.711
25.0,420455.391,-1.6,1.6,2.9,4.0,2.501,2.516,9.496,8.781
26.0,435795.805,-1.6,1.6,2.9,4.0,2.518,2.516,9.554,8.783
27.0,451115.859,-1.6,1.6,2.9,4.0,2.519,2.503,9.556,8.736
28.0,466449.696,-1.6,1.6,2.9,4.0,2.504,2.496,9.506,8.71
29.0,481785.898,-1.6,1.6,2.9,4.0,2.498,2.5,9.487,8.72
30.0,497100.414,-1.6,1.6,2.9,4.0,2.501,2.491,9.498,8.689
31.0,512434.729,-1.6,1.6,2.9,4.0,2.494,2.494,9.474,8.701
32.0,527788.136,-1.6,1.6,2.9,4.0,2.496,2.496,9.48,8.704
33.0,543119.083,-1.6,1.6,2.9,4.0,2.498,2.491,9.487,8.689
34.0,558446.575,-1.6,1.6,2.9,4.0,2.494,2.493,9.473,8.695
35.0,573800.769,-1.6,1.6,2.9,4.0,2.495,2.49,9.478,8.684
36.0,589155.677,-1.6,1.6,2.9,4.0,2.491,2.49,9.463,8.68
37.0,604498.724,-1.6,1.6,2.9,4.0,2.493,2.486,9.471,8.668
38.0,619857.103,-1.6,1.6,2.9,4.0,2.489,2.495,9.457,8.701
39.0,635223.269,-1.6,1.6,2.9,4.0,2.496,2.485,9.483,8.665
40.0,644650.418,-1.6,1.6,2.9,4.0,1.959,1.962,7.34,6.709
41.0,659999.409,-1.6,1.6,2.9,4.0,2.489,2.481,9.458,8.65
42.0,675361.216,-1.6,1.6,2.9,4.0,2.484,2.482,9.44,8.648
43.0,690710.713,-1.6,1.6,2.9,4.0,2.484,2.485,9.441,8.661
44.0,706057.997,-1.6,1.6,2.9,4.0,2.486,2.482,9.446,8.651
45.0,721416.952,-1.6,1.6,2.9,4.0,2.484,2.484,9.442,8.658
46.0,736771.285,-1.6,1.6,2.9,4.0,2.486,2.482,9.448,8.651
47.0,752111.426,-1.6,1.6,2.9,4.0,2.485,2.483,9.443,8.656
48.0,767470.73,-1.6,1.6,2.9,4.0,2.485,2.479,9.444,8.638
49.0,782842.357,-1.6,1.6,2.9,4.0,2.48,2.481,9.43,8.643
50.0,798210.674,-1.6,1.6,2.9,4.0,2.483,2.481,9.438,8.645
51.0,813582.436,-1.6,1.6,2.9,4.0,2.483,2.482,9.437,8.65
52.0,822976.381,-1.6,1.6,2.9,4.0,1.953,1.954,7.318,6.678
53.0,838372.237,-1.6,1.6,2.9,4.0,2.484,2.476,9.444,8.625
54.0,853756.505,-1.6,1.6,2.9,4.0,2.478,2.474,9.422,8.616
55.0,869146.88,-1.6,1.6,2.9,4.0,2.476,2.472,9.415,8.609
56.0,884539.441,-1.6,1.6,2.9,4.0,2.474,2.471,9.408,8.606
57.0,893832.573,-1.6,1.6,2.9,4.0,1.931,1.931,7.237,6.594
58.0,909282.119,-1.6,1.6,2.9,4.0,2.473,2.47,9.407,8.601
59.0,924687.145,-1.6,1.6,2.9,4.0,2.472,2.468,9.403,8.595
60.0,933971.513,-1.6,1.6,2.9,4.0,1.928,1.931,7.225,6.592
61.0,949428.271,-1.6,1.6,2.9,4.0,2.473,2.467,9.408,8.59
62.0,964840.748,-1.6,1.6,2.9,4.0,2.47,2.467,9.395,8.588
63.0,980256.814,-1.6,1.6,2.9,4.0,2.469,2.463,9.391,8.573
64.0,995646.363,-1.6,1.6,2.9,4.0,2.465,2.464,9.379,8.576
65.0,1011046.278,-1.6,1.6,2.9,4.0,2.465,2.464,9.379,8.577
66.0,1026459.54,-1.6,1.6,2.9,4.0,2.467,2.462,9.385,8.568
67.0,1041881.059,-1.6,1.6,2.9,4.0,2.464,2.46,9.375,8.564
68.0,1051103.176,-1.6,1.6,2.9,4.0,1.914,1.916,7.176,6.538
69.0,1066578.011,-1.6,1.6,2.9,4.0,2.465,2.457,9.38,8.551
70.0,1082016.801,-1.6,1.6,2.9,4.0,2.46,2.459,9.363,8.558
71.0,1097457.425,-1.6,1.6,2.9,4.0,2.461,2.459,9.365,8.555
72.0,1112904.5,-1.6,1.6,2.9,4.0,2.461,2.455,9.366,8.542
73.0,1128348.246,-1.6,1.6,2.9,4.0,2.457,2.456,9.354,8.544
74.0,1143782.518,-1.6,1.6,2.9,4.0,2.458,2.453,9.356,8.534
75.0,1159234.271,-1.6,1.6,2.9,4.0,2.455,2.453,9.346,8.534
76.0,1174690.708,-1.6,1.6,2.9,4.0,2.455,2.453,9.344,8.532
77.0,1190128.246,-1.6,1.6,2.9,4.0,2.455,2.451,9.346,8.526
78.0,1205592.057,-1.6,1.6,2.9,4.0,2.453,2.451,9.338,8.524
79.0,1221049.003,-1.6,1.6,2.9,4.0,2.453,2.453,9.338,8.53
80.0,1236488.191,-1.6,1.6,2.9,4.0,2.454,2.446,9.34,8.508
81.0,1251946.174,-1.6,1.6,2.9,4.0,2.449,2.448,9.325,8.515
82.0,1267385.761,-1.6,1.6,2.9,4.0,2.45,2.449,9.33,8.516
83.0,1282830.93,-1.6,1.6,2.9,4.0,2.451,2.446,9.332,8.507
84.0,1298292.931,-1.6,1.6,2.9,4.0,2.449,2.447,9.324,8.509
85.0,1313748.483,-1.6,1.6,2.9,4.0,2.449,2.444,9.325,8.5
86.0,1322842.389,-1.6,1.6,2.9,4.0,1.885,1.889,7.069,6.436
87.0,1338354.39,-1.6,1.6,2.9,4.0,2.451,2.446,9.334,8.503
88.0,1347457.226,-1.6,1.6,2.9,4.0,1.887,1.891,7.076,6.443
89.0,1362985.825,-1.6,1.6,2.9,4.0,2.452,2.447,9.34,8.508
90.0,1378472.376,-1.6,1.6,2.9,4.0,2.449,2.441,9.327,8.486
91.0,1393979.972,-1.6,1.6,2.9,4.0,2.443,2.438,9.307,8.474
92.0,1409454.009,-1.6,1.6,2.9,4.0,2.44,2.436,9.296,8.467
93.0,1424956.449,-1.6,1.6,2.9,4.0,2.438,2.444,9.291,8.494
94.0,1440448.102,-1.6,1.6,2.9,4.0,2.446,2.441,9.313,8.485
95.0,1455939.975,-1.6,1.6,2.9,4.0,2.443,2.443,9.307,8.493
96.0,1471433.155,-1.6,1.6,2.9,4.0,2.445,2.433,9.311,8.457
97.0,1486943.029,-1.6,1.6,2.9,4.0,2.436,2.437,9.283,8.47
98.0,1502450.127,-1.601,1.6,2.9,4.0,2.439,2.433,9.291,8.456
99.0,1517988.254,-1.6,1.6,2.9,4.0,2.437,2.441,9.284,8.482
100.0,1533486.516,-1.6,1.6,2.9,4.0,2.442,2.437,9.302,8.469
101.0,1542530.396,-1.6,1.6,2.9,4.0,1.872,1.879,7.024,6.399
102.0,1558118.379,-1.6,1.6,2.9,4.0,2.446,2.434,9.318,8.456
103.0,1573650.404,-1.6,1.6,2.9,4.0,2.437,2.432,9.286,8.45
104.0,1589169.623,-1.6,1.6,2.9,4.0,2.434,2.43,9.273,8.443
105.0,1604693.959,-1.6,1.6,2.9,4.0,2.433,2.436,9.27,8.464
106.0,1620237.202,-1.6,1.6,2.9,4.0,2.439,2.448,9.292,8.504
107.0,1635824.557,-1.6,1.6,2.9,4.0,2.45,2.429,9.327,8.439
108.0,1651351.656,-1.6,1.6,2.9,4.0,2.432,2.429,9.267,8.439
109.0,1666880.941,-1.6,1.6,2.9,4.0,2.43,2.427,9.263,8.432
110.0,1682405.86,-1.6,1.6,2.9,4.0,2.429,2.426,9.259,8.426
111.0,1697910.387,-1.6,1.6,2.9,4.0,2.427,2.423,9.252,8.417
112.0,1713403.882,-1.6,1.6,2.9,4.0,2.426,2.426,9.247,8.427
113.0,1728930.466,-1.6,1.6,2.9,4.0,2.428,2.428,9.256,8.431
114.0,1744473.564,-1.6,1.6,2.9,4.0,2.43,2.426,9.261,8.426
115.0,1753424.464,-1.6,1.6,2.9,4.0,1.851,1.859,6.948,6.323
116.0,1769030.78,-1.603,1.6,2.9,4.0,2.434,2.424,9.281,8.417
117.0,1784550.17,-1.6,1.6,2.9,4.0,2.427,2.431,9.253,8.443
118.0,1800072.101,-1.6,1.6,2.9,4.0,2.433,2.422,9.273,8.41
119.0,1815605.244,-1.6,1.6,2.9,4.0,2.425,2.422,9.244,8.41
120.0,1831186.111,-1.6,1.6,2.9,4.0,2.425,2.422,9.244,8.411
121.0,1846761.226,-1.6,1.6,2.9,4.0,2.423,2.419,9.239,8.398
122.0,1862362.751,-1.6,1.6,2.9,4.0,2.421,2.424,9.23,8.416
123.0,1877901.377,-1.6,1.6,2.9,4.0,2.427,2.421,9.25,8.405
124.0,1893454.07,-1.6,1.6,2.9,4.0,2.423,2.425,9.239,8.419
125.0,1908999.024,-1.6,1.6,2.9,4.0,2.427,2.42,9.251,8.403
126.0,1924568.929,-1.6,1.6,2.9,4.0,2.422,2.417,9.233,8.393
127.0,1940151.969,-1.6,1.6,2.9,4.0,2.42,2.418,9.227,8.395
128.0,1955745.717,-1.6,1.6,2.9,4.0,2.419,2.417,9.223,8.39
129.0,1971310.268,-1.6,1.6,2.9,4.0,2.419,2.411,9.224,8.371
130.0,1986890.048,-1.6,1.6,2.9,4.0,2.414,2.415,9.209,8.383
131.0,2002463.253,-1.6,1.6,2.9,4.0,2.417,2.414,9.218,8.379
132.0,2018049.128,-1.6,1.6,2.9,4.0,2.416,2.411,9.215,8.37
133.0,2033664.019,-1.6,1.6,2.9,4.0,2.413,2.417,9.205,8.393
134.0,2049209.029,-1.6,1.6,2.9,4.0,2.419,2.413,9.225,8.376
135.0,2064724.639,-1.6,1.6,2.9,4.0,2.416,2.408,9.211,8.359
136.0,2080338.523,-1.6,1.6,2.9,4.0,2.41,2.408,9.194,8.357
137.0,2095924.895,-1.6,1.6,2.9,4.0,2.411,2.408,9.196,8.356
138.0,2111507.896,-1.6,1.6,2.9,4.0,2.41,2.411,9.194,8.367
139.0,2127085.877,-1.6,1.6,2.9,4.0,2.413,2.412,9.203,8.369
140.0,2142655.227,-1.6,1.6,2.9,4.0,2.414,2.42,9.208,8.404
141.0,2158168.171,-1.6,1.6,2.9,4.0,2.422,2.407,9.231,8.355
142.0,2173717.014,-1.6,1.6,2.9,4.0,2.409,2.402,9.189,8.337
143.0,2189303.823,-1.6,1.6,2.9,4.0,2.404,2.397,9.173,8.316
144.0,2204927.905,-1.6,1.6,2.9,4.0,2.399,2.401,9.155,8.33
145.0,2220481.824,-1.6,1.6,2.9,4.0,2.404,2.413,9.173,8.374
146.0,2236042.971,-1.6,1.6,2.9,4.0,2.415,2.408,9.207,8.358
147.0,2251633.366,-1.6,1.6,2.9,4.0,2.41,2.407,9.193,8.351
148.0,2267215.84,-1.6,1.6,2.9,4.0,2.408,2.4,9.187,8.327
149.0,2282808.245,-1.6,1.6,2.9,4.0,2.402,2.402,9.166,8.333
150.0,2298303.442,-1.6,1.6,2.9,4.0,2.403,2.405,9.168,8.348
151.0,2313883.127,-1.6,1.6,2.9,4.0,2.408,2.404,9.185,8.34
152.0,2329486.793,-1.6,1.6,2.9,4.0,2.405,2.4,9.176,8.324
153.0,2345072.333,-1.6,1.6,2.9,4.0,2.402,2.4,9.164,8.323
154.0,2360676.319,-1.6,1.6,2.9,4.0,2.402,2.395,9.164,8.306
155.0,2376307.437,-1.6,1.6,2.9,4.0,2.396,2.398,9.144,8.314
156.0,2391893.539,-1.6,1.6,2.9,4.0,2.402,2.41,9.165,8.36
157.0,2407448.912,-1.6,1.6,2.9,4.0,2.413,2.41,9.201,8.363
158.0,2423032.533,-1.6,1.6,2.9,4.0,2.411,2.406,9.195,8.346
159.0,2431877.027,-1.6,1.6,2.9,4.0,1.82,1.842,6.834,6.255
160.0,2447567.174,-1.6,1.6,2.9,4.0,2.429,2.398,9.263,8.316
161.0,2456310.373,-1.601,1.6,2.9,4.0,1.805,1.813,6.779,6.155
162.0,2472035.223,-1.6,1.6,2.9,4.0,2.407,2.393,9.186,8.296
163.0,2487707.495,-1.6,1.6,2.9,4.0,2.396,2.394,9.143,8.304
164.0,2503353.018,-1.6,1.6,2.9,4.0,2.396,2.387,9.146,8.275
165.0,2519035.383,-1.6,1.6,2.9,4.0,2.389,2.386,9.121,8.27
166.0,2534683.916,-1.6,1.6,2.9,4.0,2.388,2.387,9.117,8.276
167.0,2550357.13,-1.6,1.6,2.9,4.0,2.39,2.385,9.123,8.269
168.0,2566018.88,-1.6,1.6,2.9,4.0,2.386,2.385,9.112,8.269
169.0,2581655.645,-1.6,1.6,2.9,4.0,2.388,2.384,9.116,8.265
170.0,2597294.185,-1.6,1.6,2.9,4.0,2.386,2.379,9.112,8.247
171.0,2612951.18,-1.6,1.6,2.9,4.0,2.381,2.378,9.095,8.241
172.0,2628600.355,-1.6,1.6,2.9,4.0,2.381,2.381,9.093,8.253
173.0,2644218.751,-1.6,1.6,2.9,4.0,2.383,2.388,9.098,8.281
174.0,2659869.575,-1.6,1.6,2.9,4.0,2.391,2.398,9.127,8.319
175.0,2675459.792,-1.6,1.6,2.9,4.0,2.4,2.386,9.158,8.274
176.0,2691098.351,-1.6,1.6,2.9,4.0,2.387,2.378,9.114,8.245
177.0,2706728.594,-1.6,1.6,2.9,4.0,2.38,2.373,9.088,8.225
178.0,2722379.297,-1.6,1.6,2.9,4.0,2.375,2.382,9.074,8.258
179.0,2737995.265,-1.6,1.6,2.9,4.0,2.386,2.39,9.108,8.286
180.0,2753599.423,-1.6,1.6,2.9,4.0,2.393,2.388,9.131,8.283
181.0,2769243.12,-1.6,1.6,2.9,4.0,2.391,2.388,9.125,8.283
182.0,2777935.667,-1.6,1.6,2.9,4.0,1.793,1.802,6.736,6.116
183.0,2793650.145,-1.6,1.6,2.9,4.0,2.397,2.375,9.153,8.234
184.0,2809336.831,-1.6,1.6,2.9,4.0,2.378,2.374,9.083,8.231
185.0,2825007.261,-1.6,1.6,2.9,4.0,2.378,2.383,9.082,8.259
186.0,2840635.505,-1.6,1.6,2.9,4.0,2.385,2.383,9.105,8.263
187.0,2856261.636,-1.6,1.6,2.9,4.0,2.386,2.382,9.107,8.26
188.0,2871892.807,-1.6,1.6,2.9,4.0,2.385,2.38,9.107,8.251
189.0,2887536.614,-1.6,1.6,2.9,4.0,2.38,2.366,9.09,8.196
190.0,2903144.945,-1.6,1.6,2.9,4.0,2.367,2.357,9.043,8.166
191.0,2918835.586,-1.6,1.6,2.9,4.0,2.358,2.36,9.016,8.174
192.0,2934488.222,-1.6,1.6,2.9,4.0,2.363,2.36,9.031,8.177
193.0,2950136.367,-1.6,1.6,2.9,4.0,2.362,2.357,9.027,8.165
194.0,2965785.345,-1.6,1.6,2.9,4.0,2.36,2.363,9.021,8.187
195.0,2981450.767,-1.6,1.6,2.9,4.0,2.365,2.366,9.038,8.197
196.0,2997130.345,-1.6,1.6,2.899,4.0,2.368,2.368,9.047,8.199
197.0,3012778.595,-1.6,1.6,2.9,4.0,2.371,2.362,9.058,8.184
198.0,3028428.651,-1.6,1.6,2.9,4.0,2.363,2.354,9.029,8.155
199.0,3043998.725,-1.6,1.6,2.9,4.0,2.358,2.357,9.015,8.169
200.0,3059663.873,-1.6,1.6,2.9,4.0,2.359,2.36,9.017,8.174
201.0,3075295.956,-1.6,1.6,2.9,4.0,2.361,2.357,9.025,8.164
202.0,3090957.271,-1.6,1.6,2.9,4.0,2.359,2.357,9.018,8.165
203.0,3106604.714,-1.6,1.6,2.9,4.0,2.359,2.357,9.018,8.165
204.0,3122272.003,-1.6,1.6,2.9,4.0,2.359,2.349,9.017,8.134
205.0,3137952.635,-1.6,1.6,2.9,4.0,2.351,2.353,8.99,8.152
206.0,3153632.734,-1.6,1.6,2.9,4.0,2.356,2.356,9.006,8.162
207.0,3169320.863,-1.6,1.6,2.9,4.0,2.359,2.362,9.017,8.182
208.0,3184974.918,-1.6,1.6,2.9,4.0,2.365,2.368,9.035,8.206
209.0,3200635.779,-1.6,1.6,2.9,4.0,2.37,2.365,9.053,8.195
210.0,3216285.822,-1.6,1.6,2.9,4.0,2.367,2.362,9.043,8.185
211.0,3231944.254,-1.6,1.6,2.9,4.0,2.365,2.37,9.035,8.212
212.0,3247611.298,-1.6,1.6,2.9,4.0,2.373,2.368,9.063,8.209
213.0,3263231.617,-1.6,1.6,2.9,4.0,2.37,2.364,9.051,8.192
214.0,3278873.31,-1.6,1.6,2.9,4.0,2.367,2.367,9.041,8.202
215.0,3294500.787,-1.6,1.6,2.9,4.0,2.369,2.366,9.05,8.199
216.0,3310139.113,-1.6,1.6,2.9,4.0,2.367,2.359,9.042,8.173
217.0,3325801.856,-1.6,1.6,2.9,4.0,2.361,2.357,9.021,8.167
218.0,3341432.295,-1.6,1.6,2.9,4.0,2.36,2.36,9.019,8.182
219.0,3357068.643,-1.6,1.6,2.9,4.0,2.363,2.359,9.03,8.174
220.0,3372707.42,-1.6,1.6,2.9,4.0,2.36,2.352,9.018,8.15
221.0,3381167.029,-1.6,1.6,2.9,4.0,1.742,1.75,6.55,5.931
222.0,3396916.271,-1.6,1.6,2.9,4.0,2.361,2.338,9.027,8.094
223.0,3412646.293,-1.6,1.6,2.9,4.0,2.341,2.342,8.954,8.108
224.0,3428303.959,-1.6,1.6,2.9,4.0,2.344,2.342,8.965,8.109
225.0,3443975.567,-1.6,1.6,2.9,4.0,2.345,2.343,8.969,8.116
226.0,3459633.395,-1.6,1.6,2.9,4.0,2.345,2.334,8.967,8.081
227.0,3475298.085,-1.6,1.6,2.9,4.0,2.336,2.33,8.938,8.064
228.0,3490975.13,-1.6,1.6,2.9,4.0,2.332,2.334,8.924,8.08
229.0,3506628.589,-1.6,1.6,2.9,4.0,2.337,2.339,8.938,8.099
230.0,3515030.466,-1.6,1.6,2.9,4.0,1.724,1.743,6.484,5.903
231.0,3530812.889,-1.6,1.6,2.9,4.0,2.36,2.342,9.025,8.11
232.0,3546483.39,-1.6,1.6,2.9,4.0,2.345,2.339,8.968,8.099
233.0,3562164.994,-1.6,1.6,2.9,4.0,2.341,2.337,8.954,8.091
234.0,3577832.955,-1.6,1.6,2.9,4.0,2.339,2.334,8.946,8.077
235.0,3593509.027,-1.6,1.6,2.9,4.0,2.343,2.338,8.963,8.096
236.0,3609142.934,-1.6,1.6,2.9,4.0,2.34,2.333,8.949,8.077
237.0,3624837.03,-1.6,1.6,2.9,4.0,2.337,2.343,8.94,8.111
238.0,3633255.807,-1.6,1.6,2.9,4.0,1.732,1.74,6.516,5.895
239.0,3648979.714,-1.6,1.6,2.9,4.0,2.355,2.336,9.007,8.086
240.0,3664646.557,-1.6,1.6,2.9,4.0,2.339,2.333,8.946,8.075
241.0,3680274.022,-1.6,1.6,2.9,4.0,2.336,2.337,8.936,8.09
242.0,3695927.671,-1.6,1.6,2.9,4.0,2.339,2.332,8.947,8.072
243.0,3711589.853,-1.6,1.6,2.9,4.0,2.334,2.335,8.93,8.086
244.0,3727242.654,-1.6,1.6,2.9,4.0,2.338,2.334,8.942,8.081
245.0,3742914.534,-1.6,1.6,2.9,4.0,2.337,2.332,8.939,8.075
246.0,3758605.739,-1.6,1.6,2.9,4.0,2.335,2.333,8.934,8.079
247.0,3774263.869,-1.6,1.6,2.9,4.0,2.335,2.331,8.933,8.069
248.0,3789945.498,-1.6,1.6,2.9,4.0,2.333,2.331,8.925,8.069
249.0,3805621.126,-1.6,1.6,2.9,4.0,2.334,2.335,8.928,8.087
250.0,3821291.436,-1.6,1.6,2.9,4.0,2.338,2.334,8.941,8.082
251.0,3836932.487,-1.6,1.6,2.9,4.0,2.336,2.334,8.933,8.082
252.0,3852541.376,-1.6,1.6,2.9,4.0,2.336,2.32,8.937,8.03
253.0,3860808.21,-1.6,1.6,2.9,4.0,1.694,1.711,6.38,5.792
254.0,3876653.736,-1.6,1.6,2.9,4.0,2.337,2.328,8.947,8.056
255.0,3892317.551,-1.6,1.6,2.9,4.0,2.332,2.33,8.921,8.066
256.0,3907969.58,-1.6,1.6,2.9,4.0,2.332,2.325,8.921,8.047
257.0,3923650.591,-1.601,1.6,2.9,4.0,2.327,2.33,8.903,8.067
258.0,3939326.112,-1.6,1.6,2.9,4.0,2.332,2.324,8.921,8.046
259.0,3954964.888,-1.6,1.6,2.9,4.0,2.326,2.326,8.899,8.052
260.0,3970605.252,-1.6,1.6,2.9,4.0,2.329,2.333,8.91,8.077
261.0,3975161.744,-1.6,1.6,2.9,3.999,0.859,0.899,3.131,2.944
262.0,3991012.76,-1.6,1.6,2.9,4.0,2.374,2.325,9.079,8.049
263.0,4006667.328,-1.6,1.6,2.9,4.0,2.327,2.318,8.905,8.022
264.0,4022335.523,-1.6,1.6,2.9,4.0,2.32,2.321,8.882,8.03
265.0,4037997.327,-1.6,1.6,2.9,4.0,2.323,2.322,8.89,8.037
266.0,4053594.498,-1.6,1.6,2.9,4.0,2.325,2.313,8.897,8.006
267.0,4069261.521,-1.6,1.6,2.9,4.0,2.314,2.304,8.861,7.97
268.0,4084941.249,-1.6,1.6,2.9,4.0,2.305,2.296,8.83,7.938
269.0,4100652.619,-1.6,1.6,2.9,4.0,2.297,2.296,8.803,7.937
270.0,4116354.721,-1.6,1.6,2.9,4.0,2.299,2.3,8.809,7.951
271.0,4132031.082,-1.6,1.6,2.9,4.0,2.303,2.302,8.82,7.962
272.0,4147692.934,-1.6,1.6,2.9,4.0,2.303,2.298,8.824,7.949
273.0,4163363.922,-1.6,1.6,2.9,4.0,2.3,2.293,8.811,7.928
274.0,4179041.031,-1.6,1.6,2.9,4.0,2.294,2.288,8.792,7.909
275.0,4194747.72,-1.6,1.6,2.9,4.0,2.29,2.294,8.778,7.931
276.0,4210428.976,-1.6,1.6,2.9,4.0,2.296,2.295,8.799,7.939
277.0,4226042.578,-1.6,1.6,2.9,4.0,2.297,2.291,8.801,7.922
278.0,4241713.229,-1.6,1.6,2.9,4.0,2.292,2.285,8.785,7.899
279.0,4257347.546,-1.6,1.6,2.9,4.0,2.287,2.284,8.761,7.896
280.0,4273040.277,-1.6,1.6,2.9,4.0,2.285,2.283,8.762,7.891
281.0,4288730.0,-1.6,1.6,2.9,4.0,2.286,2.287,8.764,7.908
282.0,4304400.898,-1.6,1.6,2.9,4.0,2.289,2.283,8.776,7.892
283.0,4320082.193,-1.6,1.6,2.9,4.0,2.284,2.278,8.758,7.874
284.0,4335763.49,-1.6,1.6,2.9,4.0,2.279,2.273,8.742,7.857
285.0,4351436.6,-1.6,1.6,2.9,4.0,2.274,2.268,8.725,7.838
286.0,4367160.69,-1.6,1.6,2.9,4.0,2.271,2.278,8.713,7.873
287.0,4382832.224,-1.6,1.6,2.9,4.0,2.28,2.276,8.743,7.867
288.0,4398491.424,-1.6,1.6,2.9,4.0,2.279,2.276,8.74,7.868
289.0,4414167.6,-1.6,1.6,2.9,4.0,2.278,2.274,8.737,7.859
290.0,4429841.429,-1.6,1.6,2.9,4.0,2.275,2.267,8.726,7.835
291.0,4445563.159,-1.6,1.6,2.9,4.0,2.269,2.271,8.705,7.843
292.0,4461249.775,-1.6,1.6,2.9,4.0,2.274,2.281,8.721,7.887
293.0,4476905.239,-1.6,1.6,2.9,4.0,2.284,2.29,8.755,7.918
294.0,4492557.963,-1.6,1.6,2.9,4.0,2.292,2.284,8.783,7.898
295.0,4508223.342,-1.6,1.6,2.9,4.0,2.287,2.28,8.764,7.883
296.0,4523902.036,-1.6,1.6,2.9,4.0,2.282,2.276,8.748,7.864
297.0,4539573.793,-1.6,1.6,2.9,4.0,2.279,2.283,8.738,7.893
298.0,4555228.592,-1.6,1.6,2.9,4.0,2.286,2.288,8.761,7.913
299.0,4570868.94,-1.601,1.6,2.9,4.0,2.291,2.29,8.78,7.92
300.0,4586521.916,-1.6,1.6,2.9,4.0,2.291,2.282,8.781,7.893
301.0,4602183.492,-1.6,1.6,2.9,4.0,2.283,2.271,8.751,7.848
302.0,4617868.446,-1.6,1.6,2.9,4.0,2.272,2.27,8.715,7.843
303.0,4633549.535,-1.6,1.6,2.9,4.0,2.273,2.275,8.719,7.863
304.0,4649253.089,-1.6,1.6,2.9,4.0,2.277,2.277,8.732,7.871
305.0,4664887.201,-1.6,1.6,2.9,4.0,2.279,2.273,8.739,7.857
306.0,4680548.511,-1.6,1.6,2.9,4.0,2.275,2.269,8.725,7.843
307.0,4696205.026,-1.6,1.6,2.9,4.0,2.271,2.265,8.71,7.825
308.0,4711933.253,-1.6,1.6,2.9,4.0,2.268,2.278,8.701,7.874
309.0,4719961.426,-1.6,1.6,2.9,4.0,1.641,1.659,6.185,5.607
310.0,4735771.527,-1.6,1.6,2.9,4.0,2.297,2.274,8.809,7.857
311.0,4751409.018,-1.6,1.6,2.9,4.0,2.276,2.275,8.727,7.864
312.0,4767071.828,-1.6,1.6,2.9,4.0,2.278,2.276,8.736,7.866
313.0,4782733.742,-1.6,1.6,2.9,4.0,2.278,2.274,8.734,7.859
314.0,4798455.944,-1.6,1.6,2.9,4.0,2.276,2.283,8.728,7.893
315.0,4814077.486,-1.601,1.6,2.9,4.0,2.285,2.279,8.756,7.878
316.0,4829711.733,-1.6,1.6,2.9,4.0,2.281,2.274,8.745,7.862
317.0,4845382.235,-1.6,1.6,2.9,4.0,2.276,2.271,8.728,7.85
318.0,4861036.293,-1.6,1.6,2.9,4.0,2.274,2.268,8.718,7.837
319.0,4876721.498,-1.6,1.6,2.9,4.0,2.269,2.265,8.704,7.828
320.0,4892347.78,-1.6,1.6,2.9,4.0,2.267,2.266,8.696,7.829
321.0,4908012.001,-1.6,1.6,2.9,4.0,2.268,2.265,8.699,7.829
322.0,4923679.153,-1.6,1.6,2.9,4.0,2.267,2.265,8.697,7.826
323.0,4939321.358,-1.6,1.6,2.9,4.0,2.267,2.266,8.695,7.829
324.0,4954965.864,-1.6,1.6,2.9,4.0,2.268,2.264,8.698,7.824
325.0,4962920.454,-1.6,1.6,2.9,4.0,1.624,1.643,6.126,5.55
326.0,4978713.768,-1.6,1.6,2.9,4.0,2.284,2.259,8.761,7.805
327.0,4994402.622,-1.6,1.6,2.9,4.0,2.262,2.258,8.678,7.8
328.0,5010073.231,-1.6,1.6,2.9,4.0,2.26,2.26,8.672,7.807
329.0,5025746.488,-1.6,1.6,2.9,4.0,2.263,2.261,8.681,7.814
330.0,5041400.725,-1.6,1.6,2.9,4.0,2.263,2.262,8.683,7.818
331.0,5057019.297,-1.6,1.6,2.9,4.0,2.265,2.262,8.687,7.816
332.0,5072641.46,-1.6,1.6,2.9,4.0,2.264,2.26,8.685,7.81
333.0,5088326.657,-1.6,1.6,2.9,4.0,2.263,2.265,8.685,7.83
334.0,5103948.293,-1.6,1.6,2.9,4.0,2.266,2.262,8.692,7.816
335.0,5119588.858,-1.6,1.6,2.9,4.0,2.264,2.259,8.683,7.805
336.0,5135241.564,-1.6,1.6,2.9,4.0,2.261,2.257,8.673,7.799
337.0,5150899.732,-1.6,1.6,2.9,4.0,2.26,2.261,8.671,7.814
338.0,5158849.289,-1.6,1.6,2.9,4.0,1.622,1.644,6.115,5.551
339.0,5174681.258,-1.6,1.6,2.9,4.0,2.284,2.253,8.763,7.783
340.0,5190364.473,-1.6,1.6,2.9,4.0,2.256,2.256,8.656,7.793
341.0,5206035.179,-1.6,1.6,2.9,4.0,2.258,2.252,8.664,7.778
342.0,5221723.407,-1.6,1.6,2.9,4.0,2.253,2.249,8.647,7.765
343.0,5237351.43,-1.6,1.6,2.9,4.0,2.252,2.259,8.641,7.805
344.0,5252997.352,-1.6,1.6,2.9,4.0,2.261,2.251,8.673,7.775
345.0,5268660.156,-1.6,1.6,2.9,4.0,2.254,2.254,8.649,7.787
346.0,5284306.48,-1.6,1.6,2.9,4.0,2.256,2.252,8.657,7.779
347.0,5299958.365,-1.6,1.6,2.9,4.0,2.253,2.248,8.647,7.765
348.0,5315632.652,-1.6,1.6,2.9,4.0,2.25,2.253,8.638,7.786
349.0,5331302.822,-1.6,1.6,2.9,4.0,2.256,2.249,8.656,7.771
350.0,5346919.963,-1.6,1.6,2.9,4.0,2.25,2.247,8.637,7.76
351.0,5362560.994,-1.6,1.6,2.9,4.0,2.249,2.248,8.633,7.766
352.0,5378200.369,-1.6,1.6,2.9,4.0,2.251,2.249,8.638,7.77
353.0,5393855.326,-1.6,1.6,2.9,4.0,2.252,2.246,8.641,7.759
354.0,5409475.425,-1.6,1.6,2.9,4.0,2.248,2.242,8.627,7.744
355.0,5417316.763,-1.6,1.6,2.9,4.0,1.596,1.621,6.025,5.47
356.0,5433079.434,-1.6,1.6,2.9,4.0,2.267,2.242,8.703,7.743
357.0,5448710.8,-1.6,1.6,2.9,4.0,2.245,2.247,8.619,7.761
358.0,5464256.206,-1.6,1.6,2.9,4.0,2.25,2.251,8.635,7.777
359.0,5479984.16,-1.6,1.6,2.9,4.0,2.252,2.239,8.642,7.731
360.0,5495636.968,-1.6,1.6,2.9,4.0,2.241,2.24,8.604,7.734
361.0,5511284.474,-1.6,1.6,2.9,4.0,2.241,2.236,8.604,7.719
362.0,5526962.473,-1.6,1.6,2.899,4.0,2.239,2.238,8.597,7.729
363.0,5542636.01,-1.6,1.6,2.9,4.0,2.24,2.238,8.601,7.727
364.0,5558250.732,-1.6,1.6,2.9,4.0,2.24,2.238,8.6,7.726
365.0,5573892.431,-1.6,1.6,2.9,4.0,2.24,2.235,8.6,7.72
366.0,5589546.283,-1.6,1.6,2.9,4.0,2.238,2.238,8.593,7.73
367.0,5605171.137,-1.6,1.6,2.9,4.0,2.241,2.244,8.602,7.752
368.0,5620802.785,-1.6,1.6,2.9,4.0,2.246,2.238,8.622,7.727
369.0,5636483.601,-1.6,1.6,2.9,4.0,2.24,2.239,8.601,7.736
370.0,5652112.768,-1.6,1.6,2.9,4.0,2.241,2.239,8.605,7.733
371.0,5667747.7,-1.6,1.6,2.9,4.0,2.241,2.242,8.604,7.745
372.0,5675599.229,-1.6,1.6,2.9,4.0,1.601,1.62,6.041,5.47
373.0,5691395.976,-1.6,1.6,2.9,4.0,2.263,2.237,8.689,7.725
374.0,5707030.859,-1.6,1.6,2.9,4.0,2.24,2.237,8.598,7.726
375.0,5722674.446,-1.6,1.6,2.9,4.0,2.24,2.239,8.6,7.731
376.0,5738303.09,-1.6,1.6,2.9,4.0,2.241,2.237,8.603,7.727
377.0,5753868.087,-1.6,1.6,2.9,4.0,2.24,2.234,8.6,7.713
378.0,5761660.318,-1.6,1.6,2.9,4.0,1.587,1.609,5.989,5.427
379.0,5777432.837,-1.6,1.6,2.9,4.0,2.255,2.221,8.661,7.664
380.0,5793079.829,-1.6,1.6,2.9,4.0,2.222,2.215,8.541,7.642
381.0,5808736.806,-1.6,1.6,2.9,4.0,2.216,2.21,8.519,7.622
382.0,5824424.304,-1.6,1.6,2.9,4.0,2.211,2.204,8.502,7.6
383.0,5840059.188,-1.6,1.6,2.9,4.0,2.206,2.213,8.484,7.634
384.0,5855737.626,-1.6,1.6,2.9,4.0,2.216,2.22,8.518,7.661
385.0,5871415.334,-1.6,1.6,2.9,4.0,2.222,2.213,8.538,7.638
386.0,5887076.23,-1.6,1.6,2.9,4.0,2.214,2.206,8.511,7.608
387.0,5902727.479,-1.6,1.6,2.9,4.0,2.207,2.2,8.487,7.587
388.0,5918456.188,-1.6,1.6,2.9,4.0,2.203,2.215,8.472,7.642
389.0,5934147.613,-1.6,1.6,2.9,4.0,2.219,2.216,8.528,7.65
390.0,5949657.928,-1.6,1.6,2.9,4.0,2.219,2.175,8.528,7.529
391.0,5965122.092,-1.6,1.6,2.9,4.0,2.176,2.213,8.37,0.0
392.0,5980762.68,-1.6,1.6,2.9,4.0,2.213,2.203,8.507,7.599
393.0,5996426.674,-1.6,1.6,2.854,4.0,2.204,2.198,8.477,7.579
394.0,6012065.487,-1.6,1.6,2.9,4.0,2.202,2.211,8.468,7.63
395.0,6019734.919,-1.6,1.6,2.9,4.0,1.557,1.584,5.88,5.338
396.0,6035496.342,-1.6,1.6,2.9,4.0,2.24,2.21,8.61,7.626
397.0,6051125.24,-1.6,1.6,2.9,4.0,2.213,2.203,8.505,7.601
398.0,6066699.862,-1.6,1.6,2.9,4.001,2.206,2.203,8.483,7.598
399.0,6082349.527,-1.6,1.6,2.9,4.0,2.204,2.197,8.475,7.576
400.0,6097988.715,-1.6,1.6,2.9,4.0,2.2,2.206,8.462,7.609
401.0,6113620.356,-1.6,1.6,2.9,4.0,2.209,2.206,8.492,7.611
402.0,6129262.82,-1.6,1.6,2.9,4.0,2.208,2.209,8.49,7.621
403.0,6144890.129,-1.6,1.6,2.9,4.0,2.211,2.204,8.498,7.602
404.0,6160533.617,-1.6,1.6,2.9,4.0,2.206,2.2,8.481,7.59
405.0,6176206.745,-1.6,1.6,2.9,4.0,2.202,2.205,8.469,7.605
406.0,6191838.469,-1.6,1.6,2.9,4.0,2.208,2.211,8.489,7.631
407.0,6207473.496,-1.6,1.6,2.847,4.0,2.213,2.207,8.506,7.614
408.0,6223087.851,-1.6,1.6,2.9,4.0,2.21,2.207,8.495,7.617
409.0,6230745.319,-1.6,1.6,2.898,4.0,1.554,1.582,5.87,5.331
410.0,6246569.359,-1.6,1.6,2.9,4.0,2.236,2.204,8.595,7.602
411.0,6254176.246,-1.6,1.6,2.9,4.0,1.544,1.569,5.833,5.285
412.0,6270029.28,-1.6,1.6,2.9,4.0,2.232,2.202,8.583,7.593
413.0,6285680.353,-1.6,1.6,2.9,4.0,2.204,2.202,8.476,7.596
414.0,6301331.471,-1.6,1.6,2.899,4.0,2.205,2.199,8.477,7.585
415.0,6308924.114,-1.6,1.6,2.9,4.0,1.539,1.567,5.817,5.279
416.0,6324720.417,-1.6,1.6,2.9,4.0,2.228,2.195,8.569,7.569
417.0,6340385.291,-1.6,1.6,2.9,4.0,2.198,2.197,8.454,7.578
418.0,6355981.644,-1.6,1.6,2.9,4.0,2.2,2.198,8.459,7.584
419.0,6371541.19,-1.6,1.6,2.9,4.0,2.199,2.192,8.458,7.558
420.0,6387176.797,-1.6,1.6,2.9,4.0,2.194,2.191,8.441,7.554
421.0,6402805.418,-1.6,1.6,2.9,4.0,2.194,2.194,8.439,7.566
422.0,6418385.742,-1.6,1.6,2.9,4.0,2.196,2.192,8.445,7.561
423.0,6434041.733,-1.6,1.6,2.9,4.0,2.193,2.19,8.436,7.551
424.0,6449695.287,-1.6,1.6,2.9,4.0,2.192,2.192,8.434,7.56
425.0,6465354.48,-1.6,1.6,2.9,4.0,2.195,2.191,8.442,7.555
426.0,6480969.475,-1.6,1.6,2.9,4.0,2.192,2.191,8.433,7.556
427.0,6496611.779,-1.6,1.6,2.9,4.0,2.193,2.189,8.437,7.549
428.0,6512263.564,-1.6,1.6,2.9,4.0,2.192,2.193,8.432,7.565
429.0,6519848.22,-1.6,1.6,2.9,4.0,1.537,1.567,5.808,5.277
430.0,6535624.579,-1.6,1.6,2.9,4.0,2.225,2.183,8.555,7.529
431.0,6551213.449,-1.6,1.6,2.9,4.0,2.185,2.182,8.407,7.525
432.0,6566789.582,-1.6,1.6,2.9,4.0,2.185,2.182,8.407,7.527
433.0,6582379.746,-1.6,1.6,2.9,4.0,2.185,2.192,8.408,7.561
434.0,6597984.05,-1.6,1.6,2.9,4.0,2.193,2.188,8.436,7.544
435.0,6613600.337,-1.6,1.6,2.9,4.0,2.189,2.183,8.422,7.528
436.0,6629211.014,-1.6,1.6,2.9,4.0,2.186,2.181,8.412,7.521
437.0,6636699.178,-1.6,1.6,2.9,4.0,1.516,1.544,5.733,5.196
438.0,6652507.241,-1.6,1.6,2.9,4.0,2.211,2.179,8.507,7.514
439.0,6668158.176,-1.6,1.6,2.9,4.0,2.184,2.163,8.405,7.457
440.0,6683838.481,-1.6,1.6,2.9,4.0,2.159,2.156,8.321,7.422
441.0,6699433.229,-1.6,1.6,2.9,4.0,2.158,2.146,8.313,7.387
442.0,6715176.381,-1.6,1.6,2.9,4.0,2.146,2.142,8.274,7.371
443.0,6730882.169,-1.6,1.6,2.9,4.0,2.147,2.168,8.28,7.471
444.0,6746524.821,-1.6,1.6,2.9,4.0,2.171,2.174,8.36,7.493
445.0,6762195.1,-1.6,1.6,2.9,4.0,2.175,2.173,8.372,7.491
446.0,6777816.785,-1.6,1.6,2.9,4.0,2.176,2.173,8.375,7.491
447.0,6793451.759,-1.6,1.6,2.9,4.0,2.175,2.168,8.372,7.47
448.0,6809083.433,-1.6,1.6,2.9,4.0,2.169,2.166,8.353,7.462
449.0,6824729.113,-1.6,1.6,2.9,4.0,2.168,2.167,8.347,7.469
450.0,6840336.113,-1.6,1.6,2.9,4.0,2.169,2.168,8.352,7.473
451.0,6855954.353,-1.6,1.6,2.9,4.0,2.171,2.174,8.358,7.494
452.0,6871502.69,-1.6,1.6,2.9,4.0,2.176,2.166,8.375,7.467
453.0,6887150.16,-1.6,1.6,2.9,4.0,2.167,2.163,8.347,7.451
454.0,6902756.981,-1.6,1.6,2.9,4.0,2.166,2.169,8.341,7.477
455.0,6918353.199,-1.601,1.6,2.9,4.0,2.17,2.171,8.356,7.483
456.0,6933966.475,-1.6,1.6,2.9,4.0,2.173,2.17,8.367,7.479
457.0,6949562.528,-1.6,1.6,2.9,4.0,2.172,2.17,8.361,7.48
458.0,6965163.33,-1.6,1.6,2.9,4.0,2.172,2.172,8.361,7.488
459.0,6980700.581,-1.6,1.6,2.9,4.0,2.175,2.17,8.371,7.481
460.0,6996295.717,-1.6,1.6,2.9,4.0,2.172,2.173,8.362,7.493
461.0,7011915.49,-1.6,1.6,2.9,4.0,2.175,2.172,8.372,7.489
462.0,7027511.778,-1.6,1.6,2.9,4.0,2.175,2.17,8.37,7.481
463.0,7043124.619,-1.6,1.6,2.9,4.0,2.172,2.172,8.36,7.489
464.0,7058665.116,-1.6,1.6,2.9,4.0,2.175,2.171,8.37,7.485
465.0,7074260.915,-1.6,1.6,2.9,4.0,2.173,2.175,8.364,7.5
466.0,7089823.233,-1.6,1.6,2.9,4.0,2.177,2.172,8.377,7.49
467.0,7105396.873,-1.6,1.6,2.9,4.0,2.174,2.171,8.368,7.486
468.0,7120986.43,-1.6,1.6,2.9,4.0,2.173,2.172,8.364,7.488
469.0,7136567.179,-1.6,1.6,2.9,4.0,2.174,2.17,8.366,7.482
470.0,7152068.9,-1.601,1.6,2.9,4.0,2.172,2.165,8.362,7.462
471.0,7167589.557,-1.6,1.6,2.9,4.0,2.167,2.166,8.344,7.467
472.0,7183133.467,-1.6,1.6,2.9,4.0,2.168,2.166,8.347,7.468
473.0,7198689.77,-1.6,1.6,2.9,4.0,2.168,2.165,8.348,7.464
474.0,7214280.156,-1.6,1.6,2.9,4.0,2.167,2.168,8.344,7.474
475.0,7229874.901,-1.6,1.6,2.9,4.0,2.17,2.169,8.354,7.48
476.0,7245405.583,-1.6,1.6,2.9,4.0,2.172,2.167,8.359,7.472
477.0,7260951.07,-1.6,1.6,2.9,4.0,2.17,2.168,8.352,7.472
478.0,7276488.653,-1.6,1.6,2.9,4.0,2.17,2.168,8.352,7.476
479.0,7292031.021,-1.6,1.6,2.9,4.0,2.17,2.166,8.354,7.466
480.0,7307549.746,-1.6,1.6,2.9,4.0,2.167,2.157,8.343,7.432
481.0,7323106.811,-1.6,1.6,2.9,4.0,2.159,2.158,8.316,7.437
482.0,7338641.07,-1.6,1.6,2.9,4.0,2.161,2.163,8.321,7.457
483.0,7354165.697,-1.6,1.6,2.9,4.0,2.166,2.164,8.338,7.461
484.0,7369676.593,-1.6,1.6,2.9,4.0,2.166,2.165,8.341,7.462
485.0,7385226.813,-1.6,1.6,2.9,4.001,2.167,2.167,8.344,7.472
486.0,7400718.679,-1.6,1.6,2.9,4.0,2.167,2.152,8.343,7.415
487.0,7416266.093,-1.6,1.6,2.9,4.0,2.154,2.154,8.298,7.421
488.0,7431808.631,-1.6,1.6,2.9,4.0,2.155,2.152,8.302,7.415
489.0,7447355.792,-1.6,1.6,2.9,4.0,2.155,2.152,8.3,7.415
490.0,7462897.248,-1.6,1.6,2.9,4.0,2.154,2.152,8.3,7.415
491.0,7478372.797,-1.6,1.6,2.9,4.0,2.152,2.141,8.291,7.374
492.0,7493948.451,-1.6,1.6,2.9,4.0,2.143,2.144,8.26,7.385
493.0,7509479.039,-1.6,1.6,2.9,4.0,2.148,2.155,8.278,7.428
494.0,7516868.501,-1.6,1.6,2.9,4.0,1.492,1.524,5.646,5.129
495.0,7532566.983,-1.6,1.6,2.9,4.0,2.19,2.153,8.432,7.419
496.0,7548121.03,-1.6,1.6,2.9,4.0,2.154,2.155,8.299,7.425
497.0,7563636.67,-1.6,1.6,2.9,4.0,2.157,2.149,8.308,7.402
498.0,7579110.058,-1.6,1.6,2.9,4.0,2.15,2.142,8.282,7.378
499.0,7594727.455,-1.6,1.6,2.9,4.0,2.145,2.151,8.267,7.412
500.0,7610309.841,-1.6,1.6,2.9,4.0,2.152,2.134,8.292,7.35
501.0,7625902.191,-1.6,1.6,2.9,4.0,2.136,2.137,8.236,7.36
502.0,7641482.101,-1.6,1.6,2.9,4.0,2.14,2.139,8.247,7.367
503.0,7657100.936,-1.6,1.6,2.9,4.0,2.141,2.139,8.255,7.367
504.0,7672700.799,-1.6,1.6,2.9,4.0,2.141,2.152,8.253,7.415
505.0,7688184.212,-1.6,1.6,2.9,4.0,2.155,2.148,8.299,7.402
506.0,7703718.202,-1.6,1.6,2.9,4.0,2.15,2.146,8.283,7.392
507.0,7719262.311,-1.6,1.6,2.9,4.0,2.148,2.147,8.276,7.399
508.0,7734779.187,-1.6,1.6,2.9,4.0,2.149,2.142,8.281,7.38
509.0,7750351.714,-1.6,1.6,2.9,4.0,2.144,2.143,8.262,7.382
510.0,7765914.787,-1.6,1.6,2.9,4.0,2.145,2.145,8.264,7.389
511.0,7781428.904,-1.6,1.6,2.9,4.0,2.148,2.145,8.274,7.39
512.0,7796968.075,-1.6,1.6,2.9,4.0,2.147,2.144,8.272,7.387
513.0,7812524.101,-1.6,1.6,2.9,4.0,2.145,2.142,8.267,7.381
514.0,7828018.839,-1.6,1.6,2.9,4.0,2.143,2.138,8.257,7.362
515.0,7843550.252,-1.6,1.6,2.9,4.0,2.141,2.14,8.252,7.372
516.0,7859031.778,-1.6,1.6,2.9,4.0,2.142,2.138,8.253,7.365
517.0,7866297.307,-1.6,1.6,2.9,4.0,1.467,1.494,5.555,5.023
518.0,7882029.9,-1.6,1.6,2.9,4.0,2.165,2.125,8.346,7.316
519.0,7897603.614,-1.6,1.6,2.899,4.0,2.127,2.117,8.203,7.283
520.0,7913190.905,-1.6,1.6,2.9,4.0,2.119,2.114,8.175,7.275
521.0,7928760.894,-1.6,1.6,2.9,4.0,2.117,2.112,8.168,7.267
522.0,7944345.153,-1.6,1.6,2.9,4.0,2.113,2.105,8.156,7.239
523.0,7959933.609,-1.6,1.6,2.9,4.0,2.106,2.098,8.131,7.212
524.0,7975554.738,-1.6,1.6,2.9,4.0,2.098,2.097,8.105,7.208
525.0,7991148.845,-1.6,1.6,2.9,4.0,2.1,2.102,8.109,7.228
526.0,8006770.353,-1.6,1.6,2.9,4.0,2.103,2.097,8.122,7.211
527.0,8022343.337,-1.6,1.6,2.9,4.0,2.098,2.093,8.104,7.195
528.0,8037960.895,-1.6,1.6,2.9,4.0,2.094,2.089,8.089,7.178
529.0,8053548.83,-1.6,1.602,2.9,4.0,2.091,2.094,8.079,7.198
530.0,8069157.299,-1.6,1.6,2.9,4.0,2.096,2.095,8.095,7.203
531.0,8084727.78,-1.6,1.6,2.9,4.0,2.098,2.099,8.092,7.217
532.0,8091728.43,-1.6,1.6,2.9,4.0,1.406,1.437,5.335,4.819
533.0,8107534.121,-1.6,1.6,2.9,4.0,2.129,2.087,8.223,7.173
534.0,8123132.944,-1.6,1.6,2.9,4.0,2.088,2.08,8.069,7.145
535.0,8138718.678,-1.6,1.6,2.9,4.0,2.081,2.075,8.044,7.125
536.0,8154335.079,-1.6,1.6,2.9,4.0,2.076,2.071,8.027,7.113
537.0,8169920.681,-1.6,1.6,2.9,4.0,2.075,2.092,8.023,7.191
538.0,8185463.961,-1.6,1.6,2.9,4.0,2.096,2.099,8.093,7.221
539.0,8201010.725,-1.6,1.6,2.9,4.0,2.101,2.102,8.11,7.231
540.0,8216527.537,-1.6,1.6,2.9,4.0,2.106,2.106,8.128,7.247
541.0,8232052.658,-1.6,1.6,2.9,4.0,2.108,2.103,8.137,7.237
542.0,8247589.475,-1.6,1.6,2.9,4.0,2.105,2.1,8.126,7.226
543.0,8263103.802,-1.6,1.6,2.9,4.0,2.102,2.099,8.114,7.222
544.0,8278673.724,-1.6,1.6,2.9,4.0,2.102,2.111,8.114,7.262
545.0,8294223.832,-1.6,1.6,2.9,4.0,2.114,2.12,8.155,7.299
546.0,8309689.802,-1.6,1.6,2.9,4.0,2.123,2.116,8.185,7.287
547.0,8325155.892,-1.6,1.6,2.899,4.0,2.118,2.11,8.168,7.263
548.0,8340654.133,-1.6,1.6,2.9,4.0,2.11,2.106,8.141,7.248
549.0,8356199.425,-1.6,1.6,2.9,4.0,2.108,2.103,8.134,7.236
550.0,8371714.237,-1.6,1.6,2.9,4.0,2.104,2.095,8.119,7.206
551.0,8387240.03,-1.6,1.6,2.9,4.0,2.095,2.087,8.091,7.176
552.0,8402774.416,-1.6,1.6,2.9,4.0,2.087,2.078,8.062,7.14
553.0,8418365.212,-1.6,1.6,2.9,4.0,2.079,2.082,8.035,7.154
554.0,8433886.851,-1.6,1.6,2.9,4.0,2.086,2.094,8.057,7.2
555.0,8449355.689,-1.6,1.6,2.9,4.0,2.096,2.096,8.095,7.21
556.0,8464858.005,-1.6,1.6,2.9,4.0,2.096,2.089,8.094,7.183
557.0,8480336.198,-1.6,1.6,2.9,4.0,2.091,2.087,8.076,7.177
558.0,8495860.738,-1.6,1.6,2.9,4.0,2.087,2.079,8.063,7.146
559.0,8511423.801,-1.6,1.6,2.9,4.0,2.082,2.09,8.045,7.189
560.0,8526928.571,-1.6,1.6,2.9,4.0,2.092,2.093,8.08,7.199
561.0,8542422.135,-1.6,1.6,2.9,4.0,2.094,2.095,8.086,7.207
562.0,8557906.035,-1.6,1.6,2.9,4.0,2.096,2.097,8.093,7.216
563.0,8573408.485,-1.6,1.6,2.9,4.0,2.1,2.098,8.107,7.22
564.0,8588885.021,-1.6,1.6,2.899,4.0,2.099,2.097,8.104,7.216
565.0,8604360.114,-1.6,1.6,2.9,4.0,2.099,2.097,8.103,7.216
566.0,8619857.574,-1.6,1.6,2.9,4.0,2.099,2.094,8.104,7.203
567.0,8635335.456,-1.6,1.6,2.9,4.0,2.095,2.088,8.088,7.18
568.0,8650811.141,-1.6,1.6,2.9,4.0,2.088,2.079,8.065,7.149
569.0,8666315.868,-1.6,1.6,2.9,4.0,2.081,2.072,8.039,7.121
570.0,8681921.366,-1.6,1.6,2.9,4.0,2.075,2.085,8.02,7.17
571.0,8697447.275,-1.6,1.6,2.9,4.0,2.088,2.09,8.066,7.19
572.0,8712950.068,-1.6,1.6,2.9,4.0,2.092,2.088,8.078,7.183
573.0,8728443.531,-1.6,1.6,2.9,4.0,2.089,2.083,8.07,7.163
574.0,8743937.673,-1.6,1.6,2.9,4.0,2.084,2.083,8.049,7.162
575.0,8759418.611,-1.6,1.6,2.9,4.0,2.086,2.092,8.058,7.197
576.0,8774885.62,-1.6,1.6,2.9,4.0,2.093,2.087,8.08,7.178
577.0,8790351.554,-1.6,1.6,2.9,4.0,2.088,2.087,8.065,7.177
578.0,8805854.253,-1.6,1.6,2.9,4.0,2.089,2.088,8.067,7.182
579.0,8821347.587,-1.6,1.6,2.9,4.0,2.09,2.09,8.07,7.19
580.0,8836853.808,-1.6,1.6,2.9,4.0,2.092,2.095,8.079,7.209
581.0,8852304.942,-1.6,1.6,2.9,4.0,2.097,2.097,8.095,7.216
582.0,8867763.412,-1.6,1.6,2.9,4.0,2.098,2.091,8.1,7.194
583.0,8883176.918,-1.6,1.6,2.9,4.0,2.092,2.091,8.077,7.194
584.0,8898635.786,-1.6,1.6,2.9,4.0,2.093,2.092,8.081,7.199
585.0,8905679.247,-1.6,1.6,2.9,4.0,1.415,1.449,5.369,4.864
586.0,8921383.023,-1.6,1.6,2.9,4.0,2.129,2.092,8.219,7.197
587.0,8936848.147,-1.6,1.6,2.9,4.0,2.095,2.088,8.087,7.186
588.0,8952386.982,-1.6,1.6,2.9,4.0,2.09,2.087,8.073,7.178
589.0,8967872.64,-1.6,1.6,2.9,4.0,2.088,2.078,8.065,7.146
590.0,8983282.366,-1.6,1.6,2.9,4.0,2.081,2.086,8.039,7.176
591.0,8998720.056,-1.6,1.6,2.9,4.0,2.087,2.081,8.059,7.158
592.0,9014173.853,-1.6,1.6,2.9,4.0,2.083,2.077,8.045,7.143
593.0,9029607.5,-1.6,1.6,2.9,4.0,2.079,2.079,8.033,7.15
594.0,9045073.733,-1.6,1.6,2.9,4.0,2.081,2.075,8.038,7.135
595.0,9060517.736,-1.6,1.6,2.9,4.0,2.076,2.062,8.019,7.088
596.0,9076018.724,-1.6,1.6,2.9,4.0,2.063,2.054,7.977,7.054
597.0,9091474.124,-1.6,1.6,2.9,4.0,2.055,2.049,7.945,7.037
598.0,9098201.351,-1.6,1.6,2.9,4.0,1.343,1.378,5.105,4.613
599.0,9114045.767,-1.6,1.6,2.9,4.0,2.086,2.056,8.076,7.062
600.0,9129560.147,-1.6,1.6,2.9,4.0,2.059,2.058,7.964,7.07
601.0,9145041.493,-1.6,1.6,2.9,4.0,2.06,2.055,7.965,7.06
602.0,9160516.717,-1.6,1.6,2.9,4.0,2.057,2.05,7.954,7.041
603.0,9176005.607,-1.6,1.6,2.9,4.0,2.051,2.045,7.935,7.022
604.0,9191524.811,-1.6,1.6,2.9,4.0,2.046,2.046,7.916,7.024
605.0,9206976.523,-1.6,1.6,2.9,4.0,2.05,2.057,7.931,7.069
606.0,9222394.246,-1.6,1.6,2.9,4.0,2.06,2.061,7.964,7.084
607.0,9237840.695,-1.6,1.6,2.9,4.0,2.063,2.057,7.977,7.069
608.0,9253314.952,-1.6,1.6,2.9,4.0,2.059,2.052,7.961,7.051
609.0,9268786.592,-1.6,1.6,2.9,4.0,2.053,2.046,7.942,7.027
610.0,9284342.494,-1.6,1.6,2.9,4.0,2.049,2.059,7.927,7.074
611.0,9299736.409,-1.6,1.6,2.9,4.0,2.061,2.052,7.97,7.052
612.0,9315225.282,-1.6,1.6,2.9,4.0,2.054,2.055,7.943,7.059
613.0,9330611.171,-1.6,1.6,2.9,4.0,2.057,2.056,7.954,7.067
614.0,9346059.436,-1.6,1.6,2.9,4.0,2.058,2.051,7.957,7.046
615.0,9361523.014,-1.6,1.6,2.9,4.0,2.052,2.048,7.936,7.034
616.0,9376945.805,-1.6,1.6,2.9,4.0,2.051,2.049,7.932,7.04
617.0,9383728.385,-1.6,1.6,2.9,4.0,1.352,1.394,5.138,4.672
618.0,9399408.64,-1.6,1.6,2.9,4.0,2.092,2.055,8.089,7.061
619.0,9406202.801,-1.6,1.6,2.9,4.0,1.358,1.394,5.159,4.668
620.0,9421908.488,-1.6,1.6,2.9,4.0,2.093,2.053,8.096,7.053
621.0,9437420.097,-1.6,1.6,2.9,4.0,2.055,2.053,7.948,7.053
622.0,9444221.785,-1.6,1.6,2.9,4.0,1.357,1.398,5.153,4.684
623.0,9459932.108,-1.6,1.6,2.9,4.0,2.095,2.056,8.103,7.062
624.0,9475390.066,-1.6,1.6,2.9,4.0,2.056,2.043,7.948,7.016
625.0,9490852.745,-1.6,1.6,2.9,4.0,2.045,2.041,7.911,7.01
626.0,9506283.747,-1.6,1.6,2.9,4.0,2.043,2.042,7.906,7.012
627.0,9521713.883,-1.6,1.6,2.9,4.0,2.044,2.039,7.907,7.002
628.0,9537166.25,-1.6,1.6,2.9,4.0,2.041,2.04,7.897,7.003
629.0,9552561.346,-1.6,1.6,2.899,4.0,2.042,2.046,7.899,7.026
630.0,9567969.614,-1.6,1.6,2.9,4.0,2.047,2.045,7.919,7.025
631.0,9583433.702,-1.6,1.6,2.9,4.0,2.048,2.044,7.921,7.022
632.0,9598848.699,-1.6,1.6,2.9,4.0,2.046,2.045,7.914,7.025
633.0,9614250.658,-1.6,1.6,2.9,4.0,2.047,2.042,7.918,7.016
634.0,9629701.268,-1.6,1.6,2.9,4.0,2.045,2.042,7.912,7.016
635.0,9645046.835,-1.6,1.6,2.9,4.0,2.043,2.034,7.902,6.987
636.0,9660452.044,-1.6,1.6,2.9,4.0,2.035,2.031,7.874,6.975
637.0,9675882.839,-1.6,1.6,2.9,4.0,2.033,2.034,7.87,6.985
638.0,9691241.186,-1.6,1.6,2.9,4.0,2.035,2.03,7.877,6.971
639.0,9706665.04,-1.6,1.6,2.9,4.0,2.032,2.03,7.865,6.968
640.0,9722055.322,-1.6,1.6,2.9,4.0,2.032,2.028,7.863,6.965
641.0,9737492.523,-1.6,1.6,2.9,4.0,2.03,2.027,7.858,6.959
642.0,9752928.784,-1.6,1.6,2.9,4.0,2.029,2.029,7.856,6.965
643.0,9768322.55,-1.6,1.6,2.9,4.0,2.032,2.041,7.864,7.011
644.0,9783661.926,-1.6,1.6,2.9,4.0,2.043,2.038,7.902,7.0
645.0,9790379.946,-1.6,1.6,2.9,4.0,1.34,1.378,5.092,4.615
646.0,9806011.33,-1.6,1.6,2.899,4.0,2.078,2.038,8.04,7.001
647.0,9821432.244,-1.6,1.6,2.9,4.0,2.04,2.034,7.894,6.986
648.0,9836799.612,-1.6,1.6,2.9,4.0,2.037,2.043,7.881,7.02
649.0,9838692.373,1.599,1.6,3.415,3.851,0.841,0.0,3.132,0.0