File: Li-ion_Batteries/UL-PUR_R15-EX4_18650_NCA_23C_2.5-96.5_0.5-0.5C_d_cycle_data.csv
Cycle_Index,Test_Time (s),Min_Current (A),Max_Current (A),Min_Voltage (V),Max_Voltage (V),Charge_Capacity (Ah),Discharge_Capacity (Ah),Charge_Energy (Wh),Discharge_Energy (Wh)
1.0,14110.85,-1.133,1.133,2.9,4.0,1.558,2.372,5.893,8.157
2.0,35890.075,-1.133,1.133,2.9,4.0,2.707,2.707,10.131,9.432
3.0,57715.825,-1.133,1.133,2.9,4.001,2.706,2.706,10.127,9.428
4.0,79532.297,-1.133,1.133,2.9,4.0,2.704,2.705,10.123,9.423
5.0,101322.649,-1.133,1.133,2.9,4.0,2.705,2.705,10.123,9.428
6.0,122939.904,-1.134,1.133,2.9,4.0,2.705,2.706,10.117,9.435
7.0,144649.438,-1.133,1.133,2.9,4.0,2.707,2.706,10.125,9.437
8.0,166301.987,-1.134,1.133,2.9,4.0,2.705,2.706,10.122,9.435
9.0,187998.894,-1.134,1.133,2.9,4.0,2.705,2.705,10.121,9.431
10.0,209713.851,-1.133,1.133,2.9,4.001,2.705,2.704,10.12,9.426
11.0,231390.847,-1.133,1.133,2.9,4.0,2.704,2.704,10.117,9.426
12.0,253092.388,-1.134,1.133,2.9,4.0,2.704,2.704,10.116,9.428
13.0,274800.594,-1.133,1.133,2.9,4.0,2.702,2.701,10.109,9.416
14.0,296538.348,-1.133,1.134,2.9,4.001,2.702,2.702,10.11,9.42
15.0,318217.963,-1.133,1.134,2.9,4.0,2.701,2.701,10.107,9.418
16.0,339910.39,-1.133,1.133,2.9,4.0,2.702,2.701,10.109,9.416
17.0,361676.551,-1.133,1.133,2.9,4.0,2.701,2.701,10.108,9.411
18.0,383534.197,-1.133,1.133,2.9,4.0,2.7,2.699,10.106,9.4
19.0,405323.415,-1.133,1.133,2.9,4.0,2.698,2.7,10.104,9.402
20.0,427127.979,-1.133,1.133,2.9,4.0,2.699,2.698,10.105,9.397
21.0,448885.477,-1.133,1.133,2.9,4.0,2.698,2.698,10.1,9.396
22.0,470517.096,-1.133,1.133,2.9,4.0,2.699,2.7,10.103,9.413
23.0,492163.472,-1.133,1.134,2.9,4.001,2.7,2.699,10.103,9.409
24.0,513815.026,-1.133,1.133,2.9,4.0,2.699,2.699,10.1,9.407
25.0,535478.478,-1.133,1.133,2.9,4.0,2.699,2.699,10.1,9.407
26.0,557125.703,-1.133,1.133,2.9,4.0,2.699,2.699,10.098,9.406
27.0,578774.268,-1.133,1.133,2.9,4.001,2.698,2.698,10.095,9.403
28.0,600425.503,-1.133,1.133,2.9,4.0,2.698,2.698,10.095,9.402
29.0,622071.483,-1.133,1.133,2.9,4.001,2.698,2.698,10.095,9.402
30.0,643594.127,-1.134,1.134,2.9,4.001,2.698,2.699,10.095,9.416
31.0,665182.532,-1.134,1.134,2.9,4.001,2.698,2.697,10.093,9.405
32.0,686912.784,-1.133,1.133,2.9,4.0,2.696,2.695,10.086,9.388
33.0,708722.956,-1.133,1.133,2.9,4.0,2.694,2.694,10.084,9.383
34.0,730456.38,-1.134,1.134,2.9,4.001,2.695,2.695,10.086,9.386
35.0,752187.32,-1.134,1.133,2.9,4.001,2.694,2.694,10.085,9.383
36.0,773828.022,-1.134,1.133,2.9,4.0,2.692,2.692,10.077,9.373
37.0,795544.48,-1.133,1.133,2.9,4.0,2.693,2.692,10.079,9.372
38.0,817361.807,-1.133,1.133,2.9,4.0,2.692,2.692,10.077,9.37
39.0,839089.738,-1.133,1.133,2.9,4.001,2.691,2.691,10.075,9.371
40.0,860922.176,-1.133,1.133,2.9,4.0,2.692,2.692,10.078,9.371
41.0,882734.593,-1.133,1.133,2.9,4.0,2.691,2.691,10.074,9.364
42.0,904581.73,-1.133,1.133,2.9,4.0,2.691,2.691,10.075,9.367
43.0,926296.79,-1.134,1.133,2.9,4.0,2.689,2.69,10.068,9.364
44.0,948035.379,-1.133,1.133,2.9,4.0,2.69,2.69,10.07,9.365
45.0,969829.879,-1.134,1.134,2.9,4.0,2.69,2.69,10.073,9.362
46.0,991544.041,-1.133,1.133,2.9,4.001,2.689,2.69,10.068,9.365
47.0,1013265.665,-1.133,1.133,2.9,4.001,2.69,2.69,10.07,9.362
48.0,1035016.715,-1.134,1.133,2.9,4.001,2.688,2.688,10.064,9.355
49.0,1049360.24,-1.6,1.134,2.9,4.0,2.323,2.326,8.603,7.891
50.0,1066572.847,-1.6,1.6,2.9,4.0,2.687,2.689,10.147,9.252
51.0,1083742.881,-1.6,1.6,2.9,4.0,2.688,2.687,10.147,9.247
52.0,1100936.999,-1.6,1.6,2.9,4.001,2.687,2.688,10.146,9.251
53.0,1118060.248,-1.6,1.6,2.9,4.001,2.688,2.688,10.146,9.248
54.0,1135350.998,-1.6,1.6,2.9,4.001,2.688,2.687,10.148,9.243
55.0,1152536.412,-1.6,1.6,2.9,4.001,2.686,2.685,10.142,9.235
56.0,1168300.57,-1.6,1.6,2.9,4.001,2.687,2.484,10.148,8.653
57.0,1183577.137,-1.6,1.6,2.9,4.001,2.487,2.503,9.439,8.712
58.0,1198752.89,-1.935,1.6,2.879,4.001,2.504,2.499,9.498,8.695
59.0,1213974.222,-1.6,1.6,2.9,4.001,2.5,2.496,9.485,8.684
60.0,1229168.181,-1.6,1.6,2.9,4.001,2.498,2.494,9.476,8.678
61.0,1244453.527,-1.6,1.6,2.9,4.001,2.496,2.494,9.473,8.677
62.0,1259662.735,-1.6,1.6,2.9,4.0,2.495,2.485,9.467,8.653
63.0,1274908.949,-1.6,1.6,2.9,4.001,2.488,2.493,9.442,8.674
64.0,1290157.841,-1.6,1.6,2.9,4.001,2.495,2.487,9.469,8.659
65.0,1305360.949,-1.6,1.6,2.9,4.001,2.488,2.48,9.443,8.63
66.0,1320541.892,-1.6,1.6,2.9,4.0,2.48,2.488,9.417,8.653
67.0,1335814.385,-1.6,1.6,2.9,4.0,2.491,2.479,9.454,8.625
68.0,1351026.908,-1.6,1.6,2.9,4.0,2.479,2.489,9.413,8.657
69.0,1366271.992,-2.512,1.6,2.85,4.001,2.491,2.484,9.456,8.642
70.0,1381380.729,-1.6,1.6,2.9,4.001,2.484,2.473,9.429,8.607
71.0,1396570.518,-1.6,1.6,2.9,4.0,2.474,2.476,9.396,8.614
72.0,1411766.632,-1.6,1.6,2.9,4.0,2.477,2.478,9.407,8.617
73.0,1426987.336,-1.6,1.6,2.9,4.0,2.48,2.478,9.416,8.619
74.0,1442212.143,-1.6,1.6,2.9,4.0,2.48,2.477,9.416,8.618
75.0,1457436.234,-1.6,1.6,2.9,4.0,2.478,2.484,9.408,8.636
76.0,1472631.928,-1.6,1.6,2.9,4.001,2.485,2.476,9.435,8.612
77.0,1487860.568,-1.6,1.6,2.9,4.0,2.477,2.464,9.407,8.571
78.0,1503053.861,-1.6,1.6,2.9,4.0,2.466,2.479,9.367,8.619
79.0,1518325.924,-1.6,1.6,2.9,4.0,2.481,2.476,9.422,8.61
80.0,1533524.55,-1.6,1.6,2.9,4.0,2.477,2.481,9.405,8.625
81.0,1548765.302,-1.6,1.6,2.9,4.001,2.483,2.478,9.426,8.615
82.0,1564040.196,-1.6,1.6,2.9,4.0,2.479,2.472,9.415,8.594
83.0,1579278.838,-1.6,1.6,2.9,4.0,2.473,2.468,9.396,8.581
84.0,1594485.361,-1.6,1.6,2.9,4.0,2.468,2.467,9.377,8.577
85.0,1609678.125,-1.6,1.6,2.9,4.0,2.468,2.467,9.377,8.577
86.0,1624875.908,-3.629,1.6,2.795,4.0,2.469,2.471,9.378,8.589
87.0,1640079.325,-1.6,1.6,2.9,4.0,2.472,2.469,9.389,8.582
88.0,1655254.938,-1.6,1.6,2.9,4.0,2.47,2.463,9.383,8.561
89.0,1670442.823,-1.6,1.6,2.9,4.0,2.464,2.46,9.363,8.553
90.0,1685698.337,-1.6,1.6,2.9,4.0,2.462,2.472,9.357,8.591
91.0,1700925.169,-1.6,1.6,2.9,4.0,2.473,2.47,9.396,8.585
92.0,1716145.065,-1.6,1.6,2.9,4.0,2.471,2.467,9.387,8.575
93.0,1731376.036,-1.6,1.6,2.9,4.001,2.47,2.482,9.382,8.63
94.0,1746488.131,-1.6,1.6,2.9,4.001,2.484,2.443,9.429,8.504
95.0,1761704.721,-1.6,1.6,2.9,4.001,2.48,2.488,9.416,8.651
96.0,1776917.223,-1.6,1.6,2.9,4.001,2.489,2.486,9.448,8.646
97.0,1792127.242,-1.6,1.6,2.9,4.001,2.487,2.486,9.441,8.645
98.0,1807347.812,-1.6,1.6,2.9,4.001,2.487,2.486,9.44,8.645
99.0,1822560.714,-1.804,1.6,2.886,4.001,2.488,2.486,9.442,8.647
100.0,1837786.614,-5.361,1.6,2.717,4.001,2.487,2.481,9.438,8.626
101.0,1852793.57,-1.6,1.6,2.9,4.001,2.48,2.426,9.412,8.424
102.0,1868032.082,-1.6,1.6,2.9,4.0,2.424,2.407,9.231,8.352
103.0,1876961.229,-1.6,1.6,2.9,4.0,1.852,1.848,6.955,6.282
104.0,1892231.356,-1.6,1.6,2.9,4.0,2.402,2.392,9.16,8.295
105.0,1907437.018,-1.6,1.6,2.9,4.0,2.397,2.441,9.14,8.475
106.0,1916650.161,-1.6,1.6,2.9,4.0,1.91,1.917,7.159,6.529
107.0,1931912.807,-5.363,1.6,2.717,4.0,2.451,2.45,9.322,8.51
108.0,1947149.377,-1.6,1.6,2.9,4.0,2.452,2.454,9.325,8.523
109.0,1962383.087,-1.6,1.6,2.9,4.0,2.455,2.455,9.336,8.528
110.0,1977609.815,-1.6,1.6,2.9,4.0,2.456,2.443,9.336,8.484
111.0,1992833.812,-1.6,1.6,2.9,4.0,2.444,2.438,9.296,8.465
112.0,2001996.509,-1.6,1.6,2.9,4.0,1.9,1.905,7.124,6.482
113.0,2017263.715,-1.6,1.6,2.9,4.0,2.444,2.441,9.299,8.477
114.0,2032523.832,-1.6,1.6,2.9,4.0,2.442,2.434,9.291,8.451
115.0,2047776.633,-2.204,1.6,2.865,4.0,2.435,2.429,9.269,8.431
116.0,2063036.583,-1.6,1.6,2.9,4.0,2.43,2.426,9.252,8.42
117.0,2078482.344,-1.6,1.6,2.899,4.001,2.431,2.444,9.258,8.483
118.0,2093756.215,-1.6,1.6,2.9,4.0,2.442,2.443,9.291,8.482
119.0,2109011.621,-1.6,1.6,2.9,4.0,2.444,2.439,9.297,8.466
120.0,2124261.776,-1.6,1.6,2.9,4.0,2.44,2.443,9.285,8.48
121.0,2139490.679,-1.6,1.6,2.899,4.0,2.446,2.449,9.302,8.503
122.0,2154755.393,-1.6,1.6,2.9,4.0,2.449,2.447,9.316,8.499
123.0,2169963.684,-1.878,1.6,2.882,4.0,2.448,2.439,9.312,8.468
124.0,2185221.483,-1.6,1.6,2.9,4.0,2.441,2.444,9.288,8.487
125.0,2200489.765,-1.6,1.6,2.9,4.0,2.444,2.44,9.298,8.471
126.0,2215790.165,-1.6,1.6,2.9,4.0,2.441,2.436,9.287,8.455
127.0,2231013.045,-1.6,1.6,2.9,4.0,2.437,2.433,9.275,8.446
128.0,2246316.168,-1.6,1.6,2.9,4.0,2.434,2.428,9.264,8.424
129.0,2261581.362,-1.6,1.6,2.9,4.0,2.429,2.429,9.247,8.431
130.0,2276855.646,-1.6,1.6,2.9,4.0,2.431,2.431,9.254,8.436
131.0,2292113.498,-1.802,1.6,2.886,4.0,2.432,2.418,9.257,8.391
132.0,2307306.603,-1.6,1.6,2.9,4.0,2.42,2.414,9.214,8.373
133.0,2322579.688,-1.6,1.6,2.9,4.0,2.414,2.41,9.199,8.358
134.0,2337793.269,-1.6,1.6,2.9,4.0,2.412,2.417,9.191,8.387
135.0,2353047.638,-1.6,1.6,2.9,4.0,2.418,2.421,9.212,8.398
136.0,2362072.853,-1.656,1.6,2.894,4.0,1.871,1.872,7.021,6.364
137.0,2377388.969,-1.6,1.6,2.9,4.0,2.422,2.416,9.226,8.381
138.0,2392664.509,-1.6,1.6,2.9,4.0,2.418,2.41,9.21,8.359
139.0,2401622.525,-1.6,1.6,2.9,4.0,1.854,1.859,6.961,6.316
140.0,2416920.503,-1.6,1.6,2.9,4.0,2.416,2.418,9.208,8.388
141.0,2432227.088,-1.6,1.6,2.9,4.0,2.42,2.417,9.217,8.385
142.0,2447480.075,-1.6,1.6,2.9,4.0,2.419,2.415,9.215,8.375
143.0,2462732.691,-1.6,1.6,2.9,4.0,2.416,2.411,9.203,8.363
144.0,2478220.162,-1.6,1.6,2.9,4.001,2.414,2.414,9.202,8.38
145.0,2493509.356,-1.6,1.6,2.9,4.0,2.412,2.411,9.191,8.363
146.0,2508751.376,-1.6,1.6,2.9,4.0,2.413,2.41,9.194,8.359
147.0,2524022.947,-1.6,1.6,2.9,4.0,2.412,2.422,9.193,8.402
148.0,2539255.935,-1.6,1.6,2.9,4.0,2.423,2.414,9.225,8.371
149.0,2554516.453,-1.6,1.6,2.9,4.0,2.414,2.407,9.197,8.347
150.0,2569788.181,-1.6,1.6,2.9,4.0,2.408,2.404,9.178,8.335
151.0,2585075.757,-1.6,1.6,2.9,4.0,2.405,2.405,9.169,8.339
152.0,2600341.123,-1.6,1.6,2.9,4.0,2.405,2.407,9.166,8.344
153.0,2615627.364,-1.6,1.6,2.9,4.0,2.408,2.398,9.179,8.311
154.0,2630900.215,-1.6,1.6,2.9,4.0,2.4,2.4,9.148,8.317
155.0,2639783.636,-1.6,1.6,2.9,4.0,1.838,1.842,6.903,6.254
156.0,2655145.157,-1.6,1.6,2.9,4.0,2.403,2.398,9.163,8.31
157.0,2670439.805,-1.6,1.6,2.9,4.0,2.4,2.395,9.15,8.3
158.0,2685748.397,-1.6,1.6,2.9,4.0,2.397,2.395,9.141,8.301
159.0,2701061.729,-1.6,1.6,2.9,4.0,2.395,2.387,9.134,8.269
160.0,2716392.763,-1.6,1.6,2.9,4.0,2.388,2.392,9.11,8.287
161.0,2725228.916,-1.6,1.6,2.9,4.0,1.827,1.832,6.865,6.217
162.0,2740579.563,-1.6,1.6,2.9,4.0,2.397,2.394,9.142,8.293
163.0,2755865.157,-1.6,1.6,2.9,4.0,2.395,2.391,9.135,8.281
164.0,2771148.993,-1.6,1.6,2.9,4.0,2.392,2.392,9.125,8.288
165.0,2786458.846,-1.6,1.6,2.9,4.0,2.392,2.385,9.124,8.261
166.0,2801747.945,-1.6,1.6,2.9,4.0,2.387,2.388,9.106,8.272
167.0,2817056.286,-1.6,1.6,2.9,4.0,2.39,2.389,9.115,8.278
168.0,2832356.803,-1.6,1.6,2.9,4.0,2.391,2.387,9.119,8.268
169.0,2847628.574,-1.6,1.6,2.9,4.0,2.387,2.392,9.108,8.285
170.0,2862969.043,-1.6,1.6,2.9,4.0,2.392,2.379,9.124,8.24
171.0,2878332.194,-1.6,1.6,2.9,4.0,2.383,2.404,9.094,8.33
172.0,2893617.587,-1.6,1.6,2.9,4.0,2.405,2.406,9.168,8.34
173.0,2908875.054,-1.6,1.6,2.9,4.0,2.407,2.39,9.173,8.288
174.0,2924185.943,-1.6,1.6,2.9,4.0,2.39,2.385,9.118,8.261
175.0,2939456.577,-1.6,1.6,2.9,4.0,2.385,2.384,9.1,8.257
176.0,2954740.273,-1.6,1.6,2.9,4.0,2.385,2.38,9.099,8.241
177.0,2970056.568,-1.6,1.6,2.9,4.0,2.381,2.385,9.087,8.26
178.0,2985377.599,-1.6,1.6,2.9,4.0,2.385,2.384,9.101,8.257
179.0,3000629.852,-1.6,1.6,2.9,4.0,2.386,2.382,9.102,8.25
180.0,3015923.661,-1.6,1.6,2.9,4.0,2.383,2.383,9.095,8.255
181.0,3031233.573,-1.6,1.6,2.9,4.0,2.385,2.385,9.098,8.26
182.0,3046518.999,-1.6,1.6,2.9,4.0,2.384,2.374,9.097,8.218
183.0,3061833.613,-1.6,1.6,2.9,4.0,2.376,2.379,9.068,8.238
184.0,3077206.004,-1.6,1.6,2.9,4.0,2.38,2.397,9.085,8.298
185.0,3092631.1,-1.6,1.6,2.9,4.0,2.398,2.378,9.143,8.236
186.0,3107959.46,-1.6,1.6,2.9,4.0,2.379,2.379,9.082,8.239
187.0,3123270.906,-1.6,1.6,2.9,4.0,2.38,2.371,9.085,8.21
188.0,3138617.273,-1.6,1.6,2.9,4.0,2.372,2.372,9.056,8.215
189.0,3153935.489,-1.6,1.6,2.9,4.0,2.374,2.375,9.063,8.225
190.0,3169259.443,-1.6,1.6,2.9,4.0,2.375,2.374,9.068,8.221
191.0,3184619.016,-1.6,1.6,2.9,4.0,2.376,2.377,9.071,8.231
192.0,3193353.316,-1.6,1.6,2.9,4.0,1.804,1.809,6.782,6.136
193.0,3208740.281,-1.6,1.6,2.9,4.0,2.382,2.383,9.095,8.252
194.0,3224092.88,-1.6,1.6,2.9,4.0,2.384,2.381,9.097,8.245
195.0,3239458.598,-4.08,1.6,2.771,4.0,2.382,2.381,9.091,8.244
196.0,3254778.621,-1.6,1.6,2.9,4.0,2.382,2.389,9.091,8.274
197.0,3270114.707,-1.6,1.6,2.9,4.0,2.39,2.389,9.117,8.275
198.0,3285404.074,-1.6,1.6,2.9,4.0,2.391,2.383,9.118,8.257
199.0,3294152.559,-1.6,1.6,2.9,4.0,1.811,1.81,6.803,6.138
200.0,3309545.821,-1.6,1.6,2.9,4.0,2.381,2.378,9.092,8.234
201.0,3324891.62,-1.6,1.6,2.9,4.0,2.38,2.377,9.084,8.232
202.0,3340232.548,-1.6,1.6,2.9,4.0,2.378,2.377,9.078,8.232
203.0,3355573.262,-1.6,1.6,2.9,4.0,2.379,2.376,9.08,8.226
204.0,3370932.823,-1.6,1.6,2.9,4.0,2.377,2.378,9.074,8.234
205.0,3386278.343,-1.6,1.6,2.898,4.0,2.379,2.371,9.08,8.21
206.0,3401605.205,-1.6,1.6,2.9,4.0,2.373,2.37,9.059,8.203
207.0,3416919.359,-1.6,1.6,2.9,4.0,2.371,2.373,9.054,8.217
208.0,3432241.908,-1.6,1.6,2.898,4.0,2.374,2.369,9.063,8.203
209.0,3447606.869,-1.6,1.6,2.9,4.0,2.37,2.373,9.052,8.218
210.0,3462936.15,-1.668,1.6,2.893,4.0,2.374,2.367,9.063,8.195
211.0,3478235.963,-1.6,1.6,2.9,4.0,2.368,2.364,9.042,8.182
212.0,3493569.071,-1.6,1.6,2.9,4.0,2.365,2.368,9.034,8.196
213.0,3508886.585,-1.6,1.6,2.9,4.0,2.369,2.369,9.044,8.202
214.0,3524207.275,-1.6,1.6,2.9,4.0,2.37,2.366,9.051,8.191
215.0,3539499.742,-1.6,1.6,2.9,4.0,2.368,2.368,9.041,8.198
216.0,3554814.388,-1.6,1.6,2.9,4.0,2.368,2.364,9.044,8.181
217.0,3570147.086,-1.6,1.6,2.9,4.0,2.364,2.362,9.03,8.173
218.0,3585463.566,-1.6,1.6,2.9,4.0,2.363,2.366,9.026,8.189
219.0,3600762.963,-1.6,1.6,2.9,4.0,2.367,2.365,9.039,8.185
220.0,3616146.407,-1.6,1.6,2.9,4.0,2.366,2.368,9.035,8.2
221.0,3631488.208,-1.6,1.6,2.9,4.0,2.369,2.363,9.047,8.178
222.0,3646796.577,-1.6,1.6,2.9,4.0,2.364,2.363,9.03,8.178
223.0,3662137.341,-1.6,1.6,2.9,4.0,2.363,2.362,9.027,8.174
224.0,3677456.349,-1.646,1.6,2.894,4.0,2.364,2.362,9.027,8.176
225.0,3692635.687,-1.6,1.6,2.9,4.0,2.363,2.359,9.026,8.163
226.0,3707975.849,-1.6,1.6,2.9,4.0,2.36,2.363,9.016,8.177
227.0,3723310.375,-1.6,1.6,2.9,4.0,2.364,2.361,9.027,8.171
228.0,3738645.154,-1.6,1.6,2.9,4.0,2.362,2.359,9.023,8.163
229.0,3753995.288,-1.6,1.6,2.9,4.0,2.36,2.361,9.014,8.171
230.0,3769340.067,-1.6,1.6,2.9,4.0,2.362,2.361,9.022,8.172
231.0,3784694.76,-1.6,1.6,2.9,4.0,2.362,2.359,9.022,8.165
232.0,3800043.575,-1.6,1.6,2.9,4.0,2.36,2.361,9.016,8.171
233.0,3815403.283,-1.6,1.6,2.9,4.0,2.362,2.358,9.023,8.158
234.0,3830726.638,-1.602,1.6,2.897,4.0,2.359,2.354,9.012,8.144
235.0,3846073.313,-1.6,1.6,2.9,4.0,2.354,2.35,8.995,8.13
236.0,3861432.854,-1.6,1.6,2.9,4.0,2.352,2.356,8.989,8.154
237.0,3876779.769,-1.6,1.6,2.9,4.0,2.356,2.358,9.001,8.16
238.0,3892075.842,-1.6,1.6,2.9,4.0,2.36,2.353,9.016,8.144
239.0,3907411.448,-1.6,1.6,2.9,4.0,2.354,2.353,8.994,8.143
240.0,3922725.3,-1.6,1.6,2.9,4.0,2.355,2.35,8.999,8.132
241.0,3938087.033,-1.6,1.6,2.9,4.0,2.351,2.353,8.984,8.141
242.0,3953389.737,-1.6,1.6,2.9,4.0,2.355,2.354,8.998,8.145
243.0,3968720.919,-3.867,1.6,2.78,4.0,2.355,2.355,8.997,8.149
244.0,3984047.471,-1.6,1.6,2.9,4.0,2.356,2.354,9.001,8.149
245.0,3999393.51,-1.6,1.6,2.9,4.0,2.355,2.353,8.999,8.143
246.0,4014688.062,-1.6,1.6,2.9,4.0,2.354,2.35,8.994,8.129
247.0,4029995.792,-1.6,1.6,2.9,4.0,2.351,2.353,8.985,8.139
248.0,4045310.519,-1.6,1.6,2.9,4.0,2.354,2.348,8.994,8.124
249.0,4060633.147,-1.6,1.6,2.9,4.0,2.349,2.355,8.978,8.147
250.0,4075951.1,-1.6,1.6,2.9,4.0,2.356,2.354,9.002,8.144
251.0,4091159.491,-1.6,1.6,2.9,4.0,2.354,2.349,8.992,8.125
252.0,4106475.179,-1.6,1.6,2.9,4.0,2.351,2.349,8.984,8.127
253.0,4121812.815,-1.6,1.6,2.9,4.0,2.35,2.345,8.98,8.11
254.0,4137138.886,-1.6,1.6,2.9,4.0,2.346,2.345,8.967,8.112
255.0,4152476.781,-1.6,1.6,2.9,4.0,2.347,2.346,8.97,8.114
256.0,4167822.076,-1.6,1.6,2.9,4.0,2.347,2.348,8.971,8.123
257.0,4183164.203,-1.6,1.6,2.9,4.0,2.349,2.346,8.978,8.116
258.0,4198460.208,-1.6,1.6,2.9,4.0,2.347,2.347,8.97,8.118
259.0,4213793.66,-1.6,1.6,2.9,4.0,2.348,2.345,8.976,8.113
260.0,4229148.614,-1.6,1.6,2.9,4.0,2.346,2.347,8.968,8.116
261.0,4244410.947,-1.6,1.6,2.9,4.0,2.349,2.352,8.975,8.139
262.0,4259729.091,-1.6,1.6,2.9,4.0,2.354,2.346,8.995,8.116
263.0,4275042.0,-1.6,1.6,2.9,4.0,2.347,2.344,8.971,8.108
264.0,4290361.2,-1.6,1.6,2.9,4.0,2.345,2.342,8.962,8.106
265.0,4305715.484,-1.6,1.6,2.9,4.0,2.342,2.34,8.955,8.092
266.0,4321091.055,-1.6,1.6,2.9,4.0,2.341,2.347,8.951,8.118
267.0,4336443.442,-1.6,1.6,2.9,4.0,2.35,2.346,8.98,8.116
268.0,4351782.571,-1.6,1.6,2.9,4.0,2.347,2.349,8.97,8.127
269.0,4367130.472,-1.6,1.6,2.9,4.0,2.351,2.35,8.983,8.134
270.0,4382473.283,-1.6,1.6,2.9,4.0,2.351,2.347,8.982,8.117
271.0,4397802.989,-1.6,1.6,2.9,4.0,2.348,2.348,8.973,8.125
272.0,4406338.704,-1.6,1.6,2.9,4.0,1.764,1.762,6.635,5.965
273.0,4414840.53,-1.6,1.6,2.9,4.0,1.752,1.758,6.596,5.951
274.0,4430270.397,-1.6,1.6,2.9,4.0,2.351,2.343,8.989,8.101
275.0,4445672.035,-1.6,1.6,2.9,4.0,2.346,2.346,8.968,8.112
276.0,4461036.894,-1.6,1.6,2.9,4.0,2.347,2.345,8.97,8.11
277.0,4476407.104,-1.6,1.6,2.9,4.0,2.346,2.343,8.968,8.105
278.0,4491814.484,-1.6,1.6,2.9,4.0,2.344,2.353,8.961,8.138
279.0,4507152.345,-1.6,1.6,2.9,4.0,2.355,2.342,8.997,8.099
280.0,4522465.439,-1.6,1.6,2.9,4.0,2.343,2.341,8.955,8.097
281.0,4530953.018,-1.6,1.6,2.9,4.0,1.752,1.752,6.593,5.929
282.0,4546338.392,-1.6,1.6,2.9,4.0,2.341,2.339,8.954,8.087
283.0,4561675.466,-2.406,1.6,2.854,4.0,2.341,2.339,8.95,8.087
284.0,4577011.466,-1.6,1.6,2.9,4.0,2.341,2.344,8.948,8.106
285.0,4592354.06,-1.6,1.6,2.9,4.0,2.346,2.346,8.966,8.112
286.0,4607641.901,-1.6,1.6,2.9,4.0,2.348,2.351,8.973,8.133
287.0,4622976.455,-1.6,1.6,2.9,4.0,2.351,2.337,8.981,8.081
288.0,4638293.706,-1.6,1.6,2.9,4.0,2.338,2.332,8.938,8.06
289.0,4653630.566,-1.6,1.6,2.9,4.0,2.332,2.327,8.92,8.042
290.0,4668995.944,-1.6,1.6,2.9,4.0,2.329,2.341,8.91,8.092
291.0,4684303.254,-1.6,1.6,2.9,4.0,2.343,2.343,8.955,8.103
292.0,4699606.567,-1.6,1.6,2.9,4.0,2.344,2.338,8.957,8.086
293.0,4714954.777,-1.6,1.6,2.9,4.0,2.339,2.336,8.944,8.078
294.0,4730271.389,-1.6,1.6,2.9,4.0,2.337,2.332,8.934,8.06
295.0,4745619.895,-1.6,1.6,2.9,4.0,2.333,2.333,8.922,8.065
296.0,4760875.629,-1.6,1.6,2.9,4.0,2.334,2.332,8.925,8.063
297.0,4776208.106,-1.6,1.6,2.9,4.0,2.332,2.327,8.921,8.04
298.0,4791553.188,-1.6,1.6,2.9,4.0,2.328,2.326,8.905,8.041
299.0,4806857.488,-1.6,1.6,2.9,4.0,2.327,2.326,8.901,8.041
300.0,4822182.116,-1.6,1.6,2.9,4.0,2.328,2.321,8.903,8.022
301.0,4830531.517,-1.6,1.6,2.9,4.0,1.723,1.72,6.489,5.814
302.0,4845954.608,-1.6,1.6,2.9,4.0,2.319,2.332,8.882,8.064
303.0,4861296.671,-1.6,1.6,2.9,4.0,2.335,2.339,8.93,8.089
304.0,4876631.662,-1.6,1.6,2.9,4.0,2.34,2.331,8.948,8.059
305.0,4892030.157,-2.145,1.6,2.868,4.0,2.331,2.358,8.917,8.143
306.0,4907422.84,-1.6,1.6,2.9,4.0,2.359,2.324,9.014,8.032
307.0,4922768.458,-1.6,1.6,2.9,4.0,2.324,2.321,8.892,8.021
308.0,4938103.72,-4.134,1.6,2.768,4.0,2.322,2.321,8.885,8.02
309.0,4953414.311,-1.6,1.6,2.9,4.0,2.322,2.32,8.885,8.02
310.0,4968748.914,-1.6,1.6,2.9,4.0,2.32,2.315,8.88,7.998
311.0,4984072.628,-1.6,1.6,2.9,4.0,2.316,2.32,8.866,8.018
312.0,4999386.44,-1.6,1.6,2.9,4.0,2.321,2.323,8.883,8.028
313.0,5014695.554,-1.6,1.6,2.9,4.0,2.324,2.317,8.891,8.006
314.0,5030034.641,-1.6,1.6,2.9,4.0,2.317,2.317,8.87,8.007
315.0,5038380.799,-2.532,1.6,2.847,4.0,1.718,1.724,6.471,5.827
316.0,5053783.458,-1.6,1.6,2.9,4.0,2.322,2.313,8.89,7.989
317.0,5069145.035,-1.6,1.6,2.9,4.0,2.314,2.31,8.859,7.98
318.0,5084500.09,-1.6,1.6,2.9,4.0,2.312,2.32,8.852,8.014
319.0,5099860.358,-1.6,1.6,2.9,4.0,2.322,2.324,8.885,8.033
320.0,5115226.748,-1.6,1.6,2.9,4.0,2.325,2.332,8.894,8.061
321.0,5130508.781,-1.6,1.6,2.9,4.0,2.333,2.324,8.921,8.035
322.0,5145859.223,-1.743,1.6,2.888,4.0,2.324,2.316,8.892,8.004
323.0,5161223.495,-2.953,1.6,2.825,4.0,2.317,2.312,8.868,7.988
324.0,5176588.627,-1.6,1.6,2.9,4.0,2.313,2.312,8.856,7.987
325.0,5191916.716,-1.6,1.6,2.9,4.0,2.315,2.323,8.86,8.028
326.0,5207217.025,-1.6,1.6,2.9,4.0,2.324,2.328,8.891,8.047
327.0,5222539.248,-1.6,1.6,2.9,4.0,2.328,2.323,8.905,8.031
328.0,5237856.586,-1.6,1.6,2.9,4.0,2.324,2.322,8.889,8.024
329.0,5253175.106,-1.6,1.6,2.9,4.0,2.322,2.314,8.884,7.996
330.0,5268546.812,-1.6,1.6,2.9,4.0,2.315,2.319,8.861,8.011
331.0,5283882.149,-1.6,1.6,2.9,4.0,2.32,2.319,8.879,8.015
332.0,5299187.832,-1.6,1.6,2.9,4.0,2.321,2.32,8.88,8.019
333.0,5314507.472,-1.6,1.6,2.9,4.0,2.321,2.32,8.882,8.018
334.0,5329820.449,-1.6,1.6,2.9,4.0,2.321,2.318,8.88,8.013
335.0,5345178.471,-1.6,1.6,2.9,4.0,2.317,2.301,8.869,7.948
336.0,5360519.699,-1.6,1.6,2.9,4.0,2.301,2.298,8.814,7.936
337.0,5375887.111,-1.6,1.6,2.899,4.0,2.298,2.29,8.803,7.904
338.0,5391212.323,-1.6,1.6,2.9,4.0,2.293,2.3,8.786,7.944
339.0,5406559.683,-1.6,1.6,2.9,4.0,2.301,2.298,8.814,7.937
340.0,5421916.73,-1.6,1.6,2.9,4.0,2.3,2.309,8.811,7.975
341.0,5437268.206,-3.107,1.6,2.816,4.0,2.31,2.31,8.842,7.978
342.0,5452619.721,-1.6,1.6,2.9,4.0,2.311,2.305,8.846,7.96
343.0,5467911.127,-1.6,1.6,2.9,4.0,2.306,2.307,8.822,7.97
344.0,5483243.324,-1.6,1.6,2.9,4.0,2.308,2.298,8.835,7.935
345.0,5498633.784,-1.6,1.6,2.9,4.0,2.299,2.318,8.808,8.017
346.0,5514046.271,-1.6,1.6,2.9,4.0,2.319,2.307,8.877,7.969
347.0,5529364.619,-1.6,1.6,2.9,4.0,2.309,2.302,8.84,7.954
348.0,5544689.854,-1.6,1.6,2.9,4.0,2.302,2.302,8.818,7.95
349.0,5560024.167,-1.6,1.6,2.9,4.0,2.304,2.301,8.822,7.946
350.0,5575342.268,-1.6,1.6,2.9,4.0,2.301,2.295,8.814,7.923
351.0,5590688.016,-1.6,1.6,2.9,4.0,2.295,2.297,8.794,7.929
352.0,5605985.412,-1.6,1.6,2.9,4.0,2.299,2.3,8.804,7.942
353.0,5620823.16,-4.606,1.6,2.855,4.0,2.302,2.104,8.814,7.348
354.0,5635589.309,-1.6,1.6,2.9,4.0,2.107,2.309,8.106,7.978
355.0,5643912.062,-5.444,1.6,2.708,4.0,1.711,1.72,6.446,5.815
356.0,5659268.88,-1.6,1.6,2.9,4.0,2.318,2.306,8.872,7.967
357.0,5674560.106,-1.6,1.6,2.9,4.0,2.308,2.305,8.835,7.961
358.0,5682850.05,-1.6,1.6,2.9,4.0,1.703,1.714,6.418,5.791
359.0,5698209.332,-1.6,1.6,2.9,4.0,2.317,2.313,8.869,7.994
360.0,5706543.377,-1.6,1.6,2.9,4.0,1.716,1.72,6.465,5.814
361.0,5721916.997,-1.6,1.6,2.9,4.0,2.317,2.305,8.869,7.962
362.0,5737180.336,-1.6,1.6,2.9,4.0,2.306,2.305,8.828,7.962
363.0,5752468.628,-1.6,1.6,2.9,4.0,2.308,2.307,8.835,7.972
364.0,5767760.428,-1.6,1.6,2.9,4.0,2.308,2.302,8.835,7.95
365.0,5783066.605,-1.6,1.6,2.9,4.0,2.302,2.299,8.817,7.938
366.0,5797730.068,-1.6,1.6,2.886,4.0,2.301,2.017,8.812,7.078
367.0,5812229.133,-2.39,1.6,2.854,4.0,2.02,2.306,7.787,7.961
368.0,5827517.261,-1.6,1.6,2.9,4.0,2.305,2.295,8.826,7.924
369.0,5842817.559,-1.6,1.6,2.9,4.0,2.296,2.289,8.794,7.901
370.0,5858128.01,-1.6,1.6,2.9,4.0,2.289,2.281,8.773,7.87
371.0,5873507.241,-1.6,1.6,2.9,4.0,2.282,2.288,8.749,7.898
372.0,5888824.605,-1.6,1.6,2.9,4.0,2.29,2.286,8.775,7.889
373.0,5904137.979,-1.6,1.6,2.9,4.0,2.287,2.29,8.765,7.908
374.0,5912300.926,-1.6,1.6,2.9,4.0,1.678,1.682,6.328,5.676
375.0,5927681.977,-1.6,1.6,2.9,4.0,2.292,2.279,8.789,7.862
376.0,5943026.326,-1.6,1.6,2.9,4.0,2.28,2.281,8.743,7.868
377.0,5958339.519,-1.6,1.6,2.9,4.0,2.283,2.285,8.751,7.888
378.0,5973685.282,-1.6,1.6,2.9,4.0,2.287,2.293,8.766,7.913
379.0,5988964.916,-3.296,1.6,2.808,4.0,2.294,2.287,8.786,7.893
380.0,5997135.205,-1.6,1.6,2.9,4.0,1.678,1.685,6.327,5.689
381.0,6012539.557,-1.6,1.6,2.9,4.0,2.295,2.284,8.796,7.881
382.0,6027877.265,-1.6,1.6,2.9,4.0,2.285,2.281,8.758,7.871
383.0,6042487.089,-5.566,1.6,2.856,4.0,2.282,1.945,8.749,6.832
384.0,6056929.819,-1.6,1.6,2.9,4.0,1.955,2.286,7.55,7.891
385.0,6072290.336,-1.6,1.6,2.9,4.0,2.286,2.285,8.762,7.885
386.0,6087630.715,-1.6,1.6,2.9,4.0,2.287,2.291,8.764,7.912
387.0,6102949.174,-1.6,1.6,2.9,4.0,2.294,2.289,8.789,7.908
388.0,6118275.399,-1.6,1.6,2.9,4.0,2.29,2.288,8.775,7.899
389.0,6133620.604,-1.6,1.6,2.9,4.0,2.29,2.29,8.774,7.905
390.0,6148935.29,-1.6,1.6,2.9,4.0,2.29,2.286,8.775,7.894
391.0,6164290.245,-1.6,1.6,2.9,4.0,2.287,2.286,8.765,7.891
392.0,6179603.742,-1.6,1.6,2.9,4.0,2.287,2.287,8.765,7.898
393.0,6194915.728,-1.6,1.6,2.9,4.0,2.288,2.288,8.769,7.9
394.0,6210245.727,-1.6,1.6,2.9,4.0,2.289,2.287,8.772,7.896
395.0,6225552.838,-1.6,1.6,2.9,4.0,2.288,2.287,8.769,7.896
396.0,6240859.726,-1.6,1.6,2.9,4.0,2.288,2.282,8.766,7.878
397.0,6256160.874,-1.6,1.6,2.9,4.0,2.284,2.285,8.753,7.887
398.0,6271439.301,-1.6,1.6,2.9,4.0,2.288,2.287,8.768,7.898
399.0,6286729.981,-1.6,1.6,2.9,4.0,2.288,2.288,8.77,7.901
400.0,6302018.598,-1.6,1.6,2.9,4.0,2.29,2.286,8.774,7.893
401.0,6317209.882,-1.6,1.6,2.899,4.0,2.285,2.272,8.755,7.838
402.0,6332569.56,-1.6,1.6,2.9,4.0,2.273,2.281,8.717,7.867
403.0,6347865.742,-1.6,1.6,2.9,4.0,2.283,2.287,8.75,7.898
404.0,6363160.246,-1.6,1.6,2.9,4.0,2.289,2.285,8.769,7.889
405.0,6378445.458,-1.6,1.6,2.897,4.0,2.285,2.278,8.756,7.861
406.0,6393727.829,-1.6,1.6,2.9,4.0,2.281,2.278,8.742,7.863
407.0,6409036.335,-1.6,1.6,2.9,4.0,2.279,2.276,8.738,7.855
408.0,6424358.922,-1.6,1.6,2.9,4.0,2.278,2.283,8.731,7.881
409.0,6439617.832,-3.985,1.6,2.772,4.0,2.285,2.285,8.755,7.883
410.0,6454878.607,-1.6,1.6,2.9,4.0,2.286,2.279,8.759,7.865
411.0,6470150.065,-1.6,1.6,2.9,4.0,2.279,2.273,8.737,7.843
412.0,6485403.908,-1.6,1.6,2.9,4.0,2.275,2.277,8.721,7.859
413.0,6500695.153,-1.6,1.6,2.9,4.0,2.279,2.279,8.735,7.864
414.0,6515867.694,-1.6,1.6,2.9,4.0,2.28,2.269,8.738,7.827
415.0,6531164.14,-1.6,1.6,2.9,4.0,2.269,2.262,8.702,7.8
416.0,6546458.027,-1.6,1.6,2.898,4.0,2.262,2.256,8.681,7.777
417.0,6561787.962,-1.6,1.6,2.9,4.0,2.256,2.255,8.66,7.772
418.0,6577103.254,-1.6,1.6,2.9,4.0,2.257,2.259,8.661,7.786
419.0,6592412.052,-1.6,1.6,2.9,4.0,2.261,2.262,8.675,7.802
420.0,6607696.273,-1.6,1.6,2.9,4.0,2.263,2.259,8.683,7.788
421.0,6623005.128,-1.6,1.6,2.9,4.0,2.259,2.254,8.669,7.769
422.0,6638321.952,-1.6,1.6,2.9,4.0,2.255,2.249,8.654,7.752
423.0,6653685.933,-1.6,1.6,2.9,4.0,2.25,2.256,8.64,7.775
424.0,6669034.428,-1.6,1.6,2.9,4.0,2.258,2.265,8.667,7.814
425.0,6684337.83,-1.6,1.6,2.9,4.0,2.267,2.263,8.696,7.809
426.0,6699653.126,-1.6,1.6,2.9,4.0,2.263,2.258,8.684,7.785
427.0,6714830.315,-1.6,1.6,2.9,4.001,2.259,2.258,8.671,7.787
428.0,6730151.056,-1.6,1.6,2.899,4.0,2.258,2.253,8.666,7.766
429.0,6745471.934,-1.6,1.6,2.9,4.0,2.254,2.257,8.653,7.782
430.0,6760785.995,-1.6,1.6,2.9,4.0,2.259,2.258,8.667,7.785
431.0,6776107.929,-1.6,1.6,2.9,4.0,2.258,2.253,8.666,7.766
432.0,6791438.595,-1.6,1.6,2.9,4.0,2.253,2.249,8.65,7.753
433.0,6806770.499,-1.6,1.6,2.9,4.0,2.25,2.246,8.637,7.741
434.0,6822132.934,-1.6,1.6,2.9,4.0,2.247,2.247,8.628,7.742
435.0,6837439.305,-1.6,1.6,2.9,4.0,2.249,2.249,8.635,7.752
436.0,6852793.654,-1.6,1.6,2.9,4.0,2.25,2.251,8.638,7.76
437.0,6868138.382,-1.6,1.6,2.9,4.0,2.252,2.253,8.645,7.765
438.0,6883470.288,-1.6,1.6,2.9,4.0,2.253,2.244,8.65,7.734
439.0,6898809.416,-1.6,1.6,2.9,4.0,2.244,2.239,8.62,7.715
440.0,6914197.659,-1.6,1.6,2.9,4.0,2.242,2.245,8.612,7.739
441.0,6929514.174,-1.6,1.6,2.9,4.0,2.246,2.253,8.626,7.766
442.0,6944813.176,-1.6,1.6,2.9,4.0,2.254,2.252,8.653,7.764
443.0,6960132.617,-1.6,1.6,2.9,4.0,2.252,2.247,8.646,7.745
444.0,6968042.959,-1.6,1.6,2.9,4.0,1.62,1.628,6.118,5.484
445.0,6983445.395,-1.6,1.6,2.9,4.0,2.254,2.24,8.658,7.718
446.0,6998790.501,-1.6,1.6,2.9,4.0,2.243,2.248,8.614,7.75
447.0,7014120.366,-1.6,1.6,2.9,4.0,2.25,2.253,8.638,7.767
448.0,7029422.762,-1.6,1.6,2.9,4.0,2.255,2.255,8.653,7.775
449.0,7044718.843,-1.6,1.6,2.9,4.0,2.255,2.253,8.654,7.769
450.0,7060050.429,-1.6,1.6,2.9,4.0,2.253,2.238,8.65,7.713
451.0,7075385.569,-1.6,1.6,2.9,4.0,2.239,2.234,8.6,7.694
452.0,7090686.556,-1.6,1.6,2.9,4.0,2.235,2.243,8.588,7.727
453.0,7105996.483,-1.6,1.6,2.9,4.0,2.245,2.242,8.62,7.725
454.0,7121263.82,-1.6,1.6,2.9,4.0,2.243,2.245,8.612,7.739
455.0,7136558.683,-1.6,1.6,2.9,4.0,2.246,2.242,8.625,7.725
456.0,7151860.639,-1.6,1.6,2.9,4.0,2.242,2.238,8.611,7.712
457.0,7159721.037,-1.6,1.6,2.9,4.0,1.608,1.617,6.078,5.445
458.0,7175125.361,-1.6,1.6,2.9,4.0,2.248,2.244,8.639,7.735
459.0,7190355.6,-1.6,1.6,2.9,4.0,2.244,2.243,8.618,7.732
460.0,7205704.211,-1.6,1.6,2.9,4.0,2.245,2.243,8.619,7.729
461.0,7221015.491,-1.6,1.6,2.9,4.0,2.245,2.246,8.619,7.742
462.0,7236315.679,-1.6,1.6,2.9,4.0,2.247,2.245,8.629,7.738
463.0,7251610.123,-1.6,1.6,2.9,4.0,2.246,2.24,8.622,7.721
464.0,7266847.488,-1.6,1.6,2.9,4.0,2.242,2.246,8.61,7.744
465.0,7282106.672,-1.6,1.6,2.9,4.0,2.247,2.242,8.625,7.732
466.0,7297351.248,-1.6,1.6,2.9,4.0,2.243,2.241,8.612,7.724
467.0,7312644.933,-2.367,1.6,2.854,4.0,2.242,2.24,8.611,7.728
468.0,7327946.507,-1.6,1.6,2.9,4.0,2.241,2.237,8.607,7.709
469.0,7343283.952,-1.744,1.6,2.888,4.0,2.238,2.24,8.597,7.721
470.0,7358607.732,-1.6,1.6,2.9,4.0,2.241,2.235,8.607,7.698
471.0,7373896.398,-1.6,1.6,2.9,4.0,2.235,2.238,8.587,7.713
472.0,7389193.151,-1.6,1.6,2.9,4.0,2.239,2.238,8.6,7.711
473.0,7404487.128,-1.6,1.6,2.9,4.0,2.24,2.241,8.601,7.722
474.0,7419767.197,-1.6,1.6,2.9,4.0,2.242,2.24,8.609,7.719
475.0,7435077.923,-1.6,1.6,2.9,4.0,2.242,2.232,8.609,7.691
476.0,7450366.058,-1.655,1.6,2.893,4.0,2.232,2.229,8.576,7.681
477.0,7465664.828,-1.6,1.6,2.9,4.0,2.231,2.232,8.571,7.689
478.0,7480963.937,-1.6,1.6,2.9,4.0,2.233,2.235,8.579,7.702
479.0,7496275.252,-1.6,1.6,2.9,4.0,2.236,2.238,8.591,7.713
480.0,7511546.177,-1.6,1.6,2.9,4.0,2.239,2.242,8.6,7.728
481.0,7526830.042,-1.6,1.6,2.9,4.0,2.243,2.237,8.611,7.708
482.0,7542180.203,-1.6,1.6,2.9,4.0,2.239,2.238,8.601,7.71
483.0,7557470.891,-1.6,1.6,2.9,4.0,2.239,2.242,8.598,7.727
484.0,7572741.948,-1.6,1.6,2.9,4.0,2.243,2.239,8.611,7.717
485.0,7588022.86,-1.6,1.6,2.9,4.0,2.24,2.236,8.602,7.707
486.0,7603345.565,-1.6,1.6,2.9,4.0,2.237,2.239,8.594,7.716
487.0,7618683.397,-1.6,1.6,2.9,4.0,2.24,2.243,8.605,7.73
488.0,7633981.795,-1.6,1.6,2.9,4.0,2.243,2.23,8.613,7.685
489.0,7649275.259,-1.721,1.6,2.889,4.0,2.232,2.235,8.574,7.703
490.0,7664537.113,-1.6,1.6,2.9,4.0,2.236,2.231,8.589,7.689
491.0,7679813.669,-1.6,1.6,2.9,4.0,2.232,2.226,8.574,7.669
492.0,7695059.498,-1.6,1.6,2.9,4.0,2.229,2.234,8.565,7.698
493.0,7710256.419,-1.6,1.6,2.9,4.0,2.234,2.228,8.58,7.676
494.0,7725554.057,-1.6,1.6,2.9,4.0,2.229,2.235,8.564,7.701
495.0,7740818.04,-1.6,1.6,2.9,4.0,2.236,2.233,8.589,7.699
496.0,7756079.117,-1.6,1.6,2.9,4.0,2.234,2.231,8.582,7.687
497.0,7771352.857,-1.716,1.6,2.89,4.0,2.232,2.234,8.573,7.695
498.0,7786581.336,-1.6,1.6,2.9,4.0,2.235,2.23,8.585,7.685
499.0,7801809.694,-1.6,1.6,2.9,4.0,2.231,2.226,8.568,7.668
500.0,7817092.429,-1.6,1.6,2.9,4.0,2.227,2.229,8.558,7.68
501.0,7832368.63,-1.6,1.6,2.9,4.0,2.231,2.231,8.569,7.687
502.0,7847610.193,-1.6,1.6,2.9,4.0,2.231,2.23,8.572,7.684
503.0,7862898.155,-1.6,1.6,2.9,4.0,2.231,2.231,8.57,7.688
504.0,7878219.269,-1.6,1.6,2.9,4.0,2.232,2.228,8.573,7.675
505.0,7893459.045,-1.6,1.6,2.9,4.0,2.229,2.227,8.564,7.671
506.0,7908753.492,-1.6,1.6,2.9,4.0,2.229,2.234,8.565,7.697
507.0,7923911.349,-3.115,1.6,2.814,4.001,2.235,2.237,8.585,7.713
508.0,7939208.178,-1.6,1.6,2.9,4.0,2.236,2.224,8.586,7.662
509.0,7954497.548,-1.6,1.6,2.9,4.0,2.226,2.224,8.554,7.66
510.0,7969761.381,-1.6,1.6,2.9,4.0,2.224,2.218,8.546,7.639
511.0,7985013.773,-1.6,1.6,2.9,4.0,2.219,2.223,8.53,7.655
512.0,8000282.735,-4.04,1.6,2.767,4.0,2.224,2.222,8.544,7.651
513.0,8015535.416,-1.6,1.6,2.9,4.0,2.224,2.22,8.548,7.647
514.0,8030773.571,-1.6,1.6,2.9,4.0,2.221,2.227,8.535,7.672
515.0,8046089.792,-1.6,1.6,2.9,4.0,2.228,2.224,8.562,7.659
516.0,8061346.952,-1.6,1.6,2.9,4.0,2.226,2.225,8.555,7.664
517.0,8076580.642,-1.6,1.6,2.9,4.0,2.226,2.223,8.554,7.662
518.0,8091859.276,-1.6,1.6,2.9,4.0,2.224,2.224,8.545,7.662
519.0,8107120.809,-1.6,1.6,2.9,4.0,2.226,2.227,8.55,7.673
520.0,8122315.828,-1.6,1.6,2.9,4.0,2.227,2.229,8.556,7.678
521.0,8137553.523,-1.6,1.6,2.9,4.0,2.232,2.222,8.574,7.658
522.0,8152788.955,-1.6,1.6,2.9,4.0,2.222,2.225,8.54,7.664
523.0,8168004.17,-1.6,1.6,2.9,4.0,2.226,2.226,8.551,7.667
524.0,8183248.876,-1.6,1.6,2.9,4.0,2.227,2.227,8.556,7.674
525.0,8198455.156,-2.444,1.6,2.85,4.0,2.228,2.227,8.559,7.675
526.0,8213693.062,-1.6,1.6,2.9,4.0,2.23,2.221,8.565,7.655
527.0,8228923.974,-1.6,1.6,2.9,4.0,2.221,2.215,8.536,7.629
528.0,8244185.671,-1.6,1.6,2.9,4.0,2.215,2.208,8.517,7.603
529.0,8259463.807,-1.6,1.6,2.9,4.0,2.209,2.204,8.495,7.585
530.0,8274755.375,-1.6,1.6,2.9,4.0,2.205,2.199,8.481,7.566
531.0,8290074.784,-1.6,1.6,2.9,4.0,2.199,2.202,8.464,7.574
532.0,8305388.938,-1.6,1.6,2.9,4.0,2.204,2.204,8.478,7.586
533.0,8320702.378,-1.6,1.6,2.9,4.0,2.206,2.208,8.488,7.604
534.0,8328403.217,-1.6,1.6,2.9,4.0,1.568,1.587,5.932,5.333
535.0,8343786.348,-1.6,1.6,2.9,4.0,2.225,2.199,8.559,7.564
536.0,8359084.017,-1.6,1.6,2.9,4.0,2.2,2.194,8.466,7.546
537.0,8374405.202,-4.225,1.6,2.759,4.0,2.195,2.193,8.449,7.54
538.0,8389623.389,-1.6,1.6,2.9,4.0,2.195,2.204,8.449,7.584
539.0,8404895.809,-1.6,1.6,2.9,4.0,2.205,2.209,8.484,7.608
540.0,8420166.995,-1.6,1.6,2.9,4.0,2.211,2.206,8.502,7.595
541.0,8435435.052,-1.6,1.6,2.9,4.0,2.206,2.195,8.485,7.553
542.0,8450725.588,-1.6,1.6,2.9,4.0,2.195,2.188,8.449,7.527
543.0,8466083.047,-1.6,1.6,2.9,4.0,2.189,2.199,8.43,7.564
544.0,8481357.894,-1.6,1.6,2.9,4.0,2.201,2.207,8.468,7.6
545.0,8496551.36,-1.6,1.6,2.9,4.0,2.209,2.205,8.496,7.593
546.0,8504234.096,-1.6,1.6,2.9,4.0,1.566,1.581,5.927,5.312
547.0,8519634.796,-1.6,1.6,2.9,4.0,2.219,2.218,8.536,7.626
548.0,8534947.013,-1.6,1.6,2.9,4.0,2.22,2.197,8.532,7.559
549.0,8550241.394,-1.6,1.6,2.9,4.0,2.198,2.2,8.458,7.568
550.0,8565512.365,-1.6,1.6,2.9,4.0,2.202,2.205,8.471,7.59
551.0,8580774.768,-1.6,1.6,2.9,4.0,2.206,2.202,8.485,7.578
552.0,8596024.78,-1.6,1.6,2.9,4.0,2.203,2.204,8.476,7.587
553.0,8611280.749,-3.991,1.6,2.769,4.0,2.204,2.201,8.479,7.575
554.0,8626549.674,-1.6,1.6,2.9,4.0,2.202,2.197,8.47,7.562
555.0,8641846.555,-1.6,1.6,2.9,4.0,2.199,2.203,8.461,7.581
556.0,8657094.026,-1.6,1.6,2.9,4.0,2.204,2.201,8.479,7.579
557.0,8672380.893,-1.6,1.6,2.9,4.0,2.201,2.201,8.469,7.574
558.0,8687629.832,-1.6,1.6,2.9,4.0,2.202,2.204,8.472,7.585
559.0,8702892.185,-1.6,1.6,2.9,4.0,2.205,2.199,8.48,7.568
560.0,8718134.519,-1.6,1.6,2.9,4.0,2.199,2.199,8.46,7.569
561.0,8733390.836,-1.6,1.6,2.9,4.0,2.2,2.201,8.465,7.576
562.0,8748667.551,-1.6,1.6,2.9,4.0,2.203,2.201,8.474,7.575
563.0,8763955.122,-1.6,1.6,2.9,4.0,2.201,2.199,8.468,7.566
564.0,8779182.192,-1.6,1.6,2.9,4.0,2.199,2.198,8.461,7.564
565.0,8794483.187,-1.6,1.6,2.9,4.0,2.2,2.198,8.463,7.566
566.0,8809782.569,-1.6,1.6,2.9,4.0,2.201,2.201,8.466,7.579
567.0,8825041.978,-1.6,1.6,2.9,4.0,2.202,2.198,8.47,7.567
568.0,8832676.256,-1.6,1.6,2.9,4.0,1.557,1.568,5.893,5.265
569.0,8848043.725,-1.6,1.6,2.9,4.0,2.208,2.184,8.5,7.511
570.0,8863280.872,-1.6,1.6,2.9,4.0,2.185,2.188,8.416,7.526
571.0,8878481.705,-1.6,1.6,2.9,4.0,2.19,2.186,8.429,7.523
572.0,8893763.124,-1.6,1.6,2.9,4.0,2.186,2.188,8.417,7.523
573.0,8909023.73,-1.6,1.6,2.9,4.0,2.189,2.186,8.428,7.52
574.0,8924250.818,-1.6,1.6,2.9,4.0,2.188,2.183,8.421,7.509
575.0,8939494.105,-1.6,1.6,2.9,4.0,2.183,2.187,8.407,7.52
576.0,8954736.596,-1.6,1.6,2.899,4.0,2.188,2.19,8.424,7.534
577.0,8969964.513,-1.6,1.6,2.9,4.0,2.191,2.192,8.433,7.543
578.0,8985160.527,-1.6,1.6,2.9,4.0,2.194,2.199,8.443,7.569
579.0,9000368.554,-1.6,1.6,2.9,4.0,2.199,2.183,8.46,7.511
580.0,9015550.156,-1.6,1.6,2.9,4.0,2.184,2.186,8.407,7.523
581.0,9030788.96,-1.6,1.6,2.9,4.0,2.188,2.19,8.421,7.535
582.0,9046007.819,-1.6,1.6,2.9,4.0,2.192,2.192,8.436,7.544
583.0,9061214.475,-1.6,1.6,2.9,4.0,2.192,2.185,8.438,7.517
584.0,9076433.81,-1.6,1.6,2.9,4.0,2.185,2.182,8.412,7.506
585.0,9091654.238,-1.6,1.6,2.9,4.0,2.184,2.181,8.41,7.501
586.0,9106931.547,-1.6,1.6,2.9,4.0,2.181,2.182,8.401,7.505
587.0,9122183.384,-1.6,1.6,2.9,4.008,2.182,2.184,8.404,7.513
588.0,9137461.628,-1.6,1.6,2.9,4.0,2.182,2.153,8.397,7.394
589.0,9152815.777,-1.6,1.6,2.9,4.0,2.155,2.159,8.313,7.416
590.0,9168124.946,-1.6,1.6,2.9,4.0,2.157,2.141,8.32,7.343
591.0,9183524.452,-1.6,1.6,2.9,4.0,2.142,2.163,8.268,7.423
592.0,9190994.609,-1.6,1.6,2.9,4.0,1.515,1.538,5.741,5.157
593.0,9206330.197,-1.649,1.6,2.893,4.0,2.189,2.175,8.436,7.477
594.0,9221641.928,-1.6,1.6,2.9,4.0,2.176,2.178,8.383,7.489
595.0,9236832.353,-1.6,1.6,2.9,4.0,2.179,2.178,8.392,7.491
596.0,9252023.91,-1.6,1.6,2.9,4.0,2.179,2.172,8.391,7.465
597.0,9267252.324,-1.61,1.6,2.895,4.0,2.172,2.166,8.369,7.445
598.0,9282526.497,-1.6,1.6,2.9,4.0,2.168,2.169,8.355,7.457
599.0,9297764.975,-1.6,1.6,2.9,4.0,2.171,2.173,8.364,7.47
600.0,9313005.419,-1.6,1.6,2.9,4.0,2.174,2.177,8.375,7.487
601.0,9328186.42,-1.6,1.6,2.9,4.001,2.179,2.178,8.392,7.492
602.0,9343463.403,-1.6,1.6,2.9,4.0,2.176,2.162,8.382,7.428
603.0,9358775.639,-1.6,1.6,2.9,4.0,2.165,2.174,8.344,7.476
604.0,9374009.544,-1.6,1.6,2.9,4.0,2.176,2.174,8.381,7.474
605.0,9389244.943,-1.6,1.6,2.9,4.0,2.175,2.175,8.379,7.48
606.0,9404469.65,-1.867,1.6,2.88,4.0,2.176,2.176,8.381,7.483
607.0,9419711.001,-1.6,1.6,2.9,4.0,2.178,2.171,8.386,7.467
608.0,9434915.82,-1.6,1.6,2.9,4.0,2.172,2.179,8.366,7.496
609.0,9450076.397,-1.6,1.6,2.9,4.0,2.179,2.177,8.391,7.484
610.0,9465374.257,-1.744,1.6,2.887,4.0,2.177,2.175,8.382,7.477
611.0,9480589.389,-1.6,1.6,2.9,4.001,2.177,2.178,8.383,7.493
612.0,9495799.577,-1.6,1.6,2.9,4.0,2.179,2.174,8.392,7.477
613.0,9511013.618,-1.6,1.6,2.9,4.0,2.176,2.182,8.38,7.508
614.0,9526238.51,-1.6,1.6,2.9,4.001,2.183,2.175,8.406,7.483
615.0,9533793.471,-1.95,1.6,2.876,4.0,1.534,1.556,5.812,5.226
616.0,9549116.864,-1.6,1.6,2.9,4.001,2.198,2.179,8.462,7.495
617.0,9564380.241,-1.6,1.6,2.898,4.0,2.181,2.178,8.4,7.491
618.0,9579577.068,-1.6,1.6,2.9,4.0,2.178,2.177,8.387,7.488
619.0,9594796.551,-1.6,1.6,2.9,4.0,2.179,2.175,8.389,7.479
620.0,9610018.416,-1.6,1.6,2.9,4.001,2.177,2.166,8.383,7.452
621.0,9625281.26,-1.6,1.6,2.9,4.0,2.167,2.172,8.349,7.471
622.0,9640530.833,-1.6,1.6,2.9,4.0,2.173,2.174,8.37,7.478
623.0,9655776.116,-1.6,1.6,2.9,4.0,2.175,2.174,8.379,7.479
624.0,9671007.415,-1.6,1.6,2.9,4.0,2.175,2.173,8.375,7.47
625.0,9678528.803,-1.6,1.6,2.9,4.0,1.529,1.547,5.79,5.192
626.0,9693905.376,-1.6,1.6,2.9,4.0,2.191,2.174,8.443,7.478
627.0,9709147.635,-1.6,1.6,2.9,4.0,2.176,2.171,8.377,7.466
628.0,9724345.912,-1.6,1.6,2.9,4.001,2.173,2.173,8.37,7.473
629.0,9739584.837,-1.6,1.6,2.9,4.001,2.176,2.173,8.379,7.475
630.0,9754786.748,-1.6,1.6,2.9,4.0,2.173,2.171,8.371,7.465
631.0,9769996.723,-1.6,1.6,2.9,4.0,2.171,2.161,8.361,7.427
632.0,9785234.321,-1.6,1.6,2.9,4.0,2.162,2.162,8.334,7.431
633.0,9792680.16,-1.6,1.6,2.9,4.0,1.51,1.532,5.723,5.138
634.0,9808020.132,-3.356,1.6,2.802,4.001,2.185,2.167,8.418,7.45
635.0,9823214.249,-1.6,1.6,2.9,4.001,2.169,2.169,8.355,7.456
636.0,9838396.651,-1.6,1.6,2.9,4.001,2.17,2.169,8.361,7.458
637.0,9853564.369,-1.6,1.6,2.9,4.001,2.17,2.166,8.361,7.448
638.0,9868833.998,-1.6,1.6,2.9,4.0,2.165,2.156,8.345,7.41
639.0,9884079.444,-1.6,1.6,2.9,4.0,2.158,2.155,8.319,7.403
640.0,9899327.14,-1.6,1.6,2.9,4.0,2.156,2.154,8.312,7.401
641.0,9914554.912,-1.6,1.6,2.9,4.0,2.155,2.156,8.311,7.405
642.0,9929779.125,-1.6,1.6,2.9,4.0,2.157,2.153,8.314,7.397
643.0,9945040.544,-1.6,1.6,2.9,4.0,2.153,2.144,8.302,7.36
644.0,9960330.381,-1.6,1.6,2.9,4.0,2.146,2.152,8.28,7.39
645.0,9975535.571,-1.6,1.6,2.9,4.0,2.154,2.159,8.305,7.418
646.0,9990720.298,-1.6,1.6,2.897,4.001,2.161,2.161,8.329,7.433
647.0,10005999.861,-1.6,1.6,2.9,4.0,2.161,2.16,8.329,7.424
648.0,10018651.64,-1.6,1.6,3.409,4.0,2.161,1.154,8.329,4.166