File: Li-ion_Batteries/UL-PUR_R15-NA10_18650_NCA_23C_2.5-96.5_0.5-0.5C_j_cycle_data.csv
Cycle_Index,Test_Time (s),Min_Current (A),Max_Current (A),Min_Voltage (V),Max_Voltage (V),Charge_Capacity (Ah),Discharge_Capacity (Ah),Charge_Energy (Wh),Discharge_Energy (Wh)
1.0,12928.337,-1.599,1.6,2.9,4.0,1.315,2.618,5.16,9.137
2.0,28772.848,-1.599,1.6,2.9,4.0,2.613,2.601,9.894,9.079
3.0,44466.365,-1.599,1.6,2.9,4.0,2.6,2.598,9.839,9.073
4.0,60137.17,-1.599,1.6,2.9,4.0,2.597,2.588,9.828,9.039
5.0,75790.755,-1.599,1.6,2.9,4.0,2.588,2.592,9.792,9.058
6.0,91414.971,-1.599,1.6,2.9,4.0,2.592,2.577,9.803,9.0
7.0,106968.891,-1.599,1.6,2.9,4.0,2.577,2.571,9.75,8.982
8.0,122434.2,-1.6,1.6,2.9,4.0,2.571,2.572,9.727,8.987
9.0,137915.201,-1.6,1.6,2.9,4.0,2.571,2.579,9.729,9.011
10.0,153425.86,-1.599,1.6,2.9,4.0,2.578,2.573,9.752,8.99
11.0,168831.955,-1.599,1.6,2.9,4.0,2.574,2.569,9.732,8.977
12.0,184259.549,-1.6,1.6,2.9,4.0,2.568,2.565,9.715,8.963
13.0,199724.475,-1.599,1.6,2.9,4.0,2.563,2.56,9.701,8.941
14.0,215162.123,-1.6,1.6,2.9,4.0,2.56,2.569,9.686,8.975
15.0,230583.672,-1.599,1.6,2.9,4.0,2.569,2.557,9.718,8.934
16.0,245957.766,-1.599,1.6,2.9,4.0,2.557,2.548,9.674,8.905
17.0,261347.589,-1.6,1.6,2.9,4.0,2.547,2.544,9.642,8.885
18.0,276723.719,-1.599,1.6,2.9,4.0,2.543,2.542,9.629,8.88
19.0,292061.692,-1.599,1.6,2.9,4.0,2.542,2.554,9.625,8.925
20.0,307418.099,-1.599,1.6,2.9,4.0,2.554,2.552,9.664,8.915
21.0,322767.057,-1.599,1.6,2.9,4.0,2.552,2.55,9.655,8.91
22.0,338073.302,-1.599,1.6,2.9,4.0,2.55,2.549,9.649,8.906
23.0,353413.405,-1.599,1.6,2.9,4.0,2.549,2.56,9.646,8.943
24.0,368721.813,-1.599,1.6,2.9,4.0,2.559,2.542,9.676,8.881
25.0,384012.147,-1.599,1.6,2.9,4.0,2.541,2.547,9.618,8.897
26.0,399317.36,-1.599,1.6,2.9,4.0,2.546,2.545,9.635,8.892
27.0,414612.812,-1.599,1.6,2.9,4.0,2.545,2.546,9.63,8.896
28.0,429888.102,-1.599,1.6,2.9,4.0,2.546,2.548,9.632,8.903
29.0,439790.471,-1.599,1.6,2.9,4.0,2.072,2.061,7.734,7.077
30.0,455110.515,-1.599,1.6,2.9,4.0,2.535,2.553,9.597,8.917
31.0,470419.073,-1.599,1.6,2.9,4.0,2.553,2.545,9.657,8.89
32.0,485696.08,-1.599,1.6,2.9,4.0,2.545,2.544,9.628,8.888
33.0,500979.437,-1.599,1.6,2.9,4.0,2.543,2.542,9.624,8.879
34.0,516246.925,-1.6,1.6,2.9,4.0,2.541,2.543,9.615,8.882
35.0,531509.882,-1.599,1.6,2.899,4.0,2.543,2.537,9.621,8.862
36.0,546759.736,-1.599,1.6,2.9,4.0,2.537,2.547,9.6,8.898
37.0,561992.994,-1.6,1.6,2.9,4.0,2.547,2.539,9.635,8.872
38.0,577284.915,-1.599,1.6,2.9,4.0,2.538,2.54,9.605,8.872
39.0,592538.24,-1.6,1.6,2.9,4.0,2.54,2.546,9.609,8.895
40.0,607828.787,-1.6,1.6,2.9,4.0,2.545,2.538,9.628,8.864
41.0,623080.045,-1.599,1.6,2.9,4.0,2.537,2.534,9.601,8.851
42.0,638316.993,-1.599,1.6,2.9,4.0,2.534,2.533,9.592,8.848
43.0,653557.754,-1.599,1.6,2.9,4.0,2.532,2.536,9.583,8.857
44.0,668785.108,-1.599,1.6,2.9,4.0,2.535,2.533,9.595,8.846
45.0,684007.503,-1.608,1.6,2.897,4.0,2.532,2.525,9.582,8.821
46.0,699236.755,-1.599,1.6,2.9,4.0,2.524,2.524,9.557,8.817
47.0,714471.729,-1.6,1.6,2.9,4.0,2.524,2.524,9.554,8.813
48.0,729681.415,-1.599,1.6,2.9,4.0,2.524,2.521,9.555,8.805
49.0,744884.583,-1.599,1.6,2.9,4.0,2.521,2.523,9.544,8.809
50.0,760103.975,-1.599,1.6,2.9,4.0,2.523,2.525,9.552,8.818
51.0,775309.511,-1.599,1.6,2.9,4.0,2.524,2.516,9.556,8.785
52.0,790489.367,-1.599,1.6,2.9,4.0,2.516,2.517,9.527,8.789
53.0,805698.003,-1.599,1.6,2.9,4.0,2.516,2.523,9.531,8.811
54.0,820943.091,-1.6,1.6,2.9,4.0,2.522,2.531,9.55,8.838
55.0,836169.448,-1.599,1.6,2.9,4.0,2.53,2.517,9.58,8.788
56.0,851390.523,-1.6,1.6,2.9,4.0,2.516,2.525,9.529,8.815
57.0,866648.913,-1.599,1.6,2.9,4.0,2.523,2.511,9.553,8.765
58.0,881839.422,-1.599,1.6,2.9,4.0,2.511,2.515,9.51,8.778
59.0,897040.945,-1.599,1.6,2.9,4.0,2.514,2.512,9.522,8.77
60.0,912231.814,-1.6,1.6,2.9,4.0,2.512,2.513,9.513,8.774
61.0,927417.706,-1.599,1.6,2.9,4.0,2.513,2.511,9.516,8.765
62.0,942568.279,-1.599,1.6,2.9,4.0,2.511,2.51,9.509,8.764
63.0,957762.91,-1.599,1.6,2.9,4.0,2.509,2.513,9.506,8.772
64.0,972975.656,-1.599,1.6,2.899,4.0,2.513,2.513,9.517,8.774
65.0,988164.713,-1.599,1.6,2.9,4.0,2.513,2.516,9.517,8.782
66.0,1003350.492,-1.6,1.6,2.9,4.0,2.515,2.517,9.523,8.787
67.0,1018532.599,-1.599,1.6,2.9,4.0,2.517,2.516,9.531,8.782
68.0,1033694.515,-1.6,1.6,2.9,4.0,2.515,2.505,9.522,8.746
69.0,1048841.213,-1.6,1.6,2.9,4.0,2.504,2.504,9.486,8.738
70.0,1064002.069,-1.599,1.6,2.9,4.0,2.503,2.507,9.483,8.749
71.0,1079175.821,-1.599,1.6,2.9,4.0,2.506,2.506,9.494,8.747
72.0,1094350.834,-1.599,1.6,2.9,4.0,2.506,2.505,9.492,8.742
73.0,1109542.818,-1.599,1.6,2.9,4.0,2.504,2.507,9.487,8.749
74.0,1124736.369,-1.599,1.6,2.9,4.0,2.506,2.489,9.495,8.686
75.0,1139920.703,-1.599,1.6,2.9,4.0,2.489,2.493,9.436,8.698
76.0,1155055.576,-1.599,1.6,2.898,4.0,2.492,2.497,9.447,8.714
77.0,1170209.81,-1.599,1.6,2.9,4.0,2.496,2.494,9.459,8.7
78.0,1185364.859,-1.599,1.6,2.9,4.0,2.493,2.489,9.448,8.685
79.0,1200511.85,-1.6,1.6,2.9,4.0,2.489,2.49,9.437,8.686
80.0,1215649.918,-1.599,1.6,2.9,4.0,2.488,2.492,9.434,8.693
81.0,1230837.626,-1.599,1.6,2.9,4.0,2.491,2.49,9.444,8.688
82.0,1245974.444,-1.599,1.6,2.9,4.076,2.489,2.489,9.436,8.683
83.0,1261117.654,-1.599,1.6,2.9,4.0,2.488,2.492,9.432,8.696
84.0,1276265.408,-1.599,1.6,2.9,4.0,2.492,2.49,9.445,8.687
85.0,1285888.961,-1.599,1.6,2.9,4.0,2.002,2.007,7.484,6.876
86.0,1301094.592,-1.599,1.6,2.9,4.0,2.493,2.49,9.45,8.685
87.0,1316279.11,-1.599,1.6,2.9,4.0,2.49,2.491,9.44,8.686
88.0,1331413.971,-1.599,1.6,2.9,4.0,2.49,2.488,9.44,8.677
89.0,1346579.156,-1.6,1.6,2.9,4.0,2.488,2.489,9.431,8.68
90.0,1361722.489,-1.599,1.6,2.9,4.0,2.488,2.485,9.432,8.67
91.0,1371300.629,-1.599,1.6,2.9,4.0,1.994,1.995,7.456,6.834
92.0,1386497.768,-1.599,1.6,2.9,4.0,2.483,2.479,9.419,8.646
93.0,1401622.613,-1.599,1.6,2.9,4.0,2.478,2.472,9.399,8.622
94.0,1416751.892,-1.599,1.6,2.9,4.0,2.472,2.479,9.378,8.646
95.0,1431848.857,-1.599,1.6,2.9,4.0,2.479,2.483,9.401,8.658
96.0,1446989.125,-1.599,1.6,2.9,4.0,2.482,2.481,9.41,8.652
97.0,1462087.202,-1.599,1.6,2.9,4.0,2.48,2.471,9.404,8.616
98.0,1471551.055,-1.599,1.6,2.9,4.0,1.968,1.97,7.365,6.744
99.0,1486729.784,-1.599,1.6,2.9,4.0,2.469,2.475,9.369,8.629
100.0,1501882.455,-1.599,1.6,2.9,4.0,2.475,2.474,9.389,8.628
101.0,1517012.155,-1.599,1.6,2.9,4.0,2.474,2.474,9.385,8.628
102.0,1532151.799,-1.599,1.6,2.9,4.0,2.474,2.477,9.383,8.637
103.0,1547274.179,-1.599,1.6,2.9,4.0,2.477,2.481,9.392,8.652
104.0,1562373.879,-1.599,1.6,2.9,4.0,2.481,2.467,9.406,8.602
105.0,1571838.782,-1.599,1.6,2.9,4.0,1.965,1.973,7.355,6.755
106.0,1587005.057,-1.599,1.6,2.9,4.0,2.471,2.472,9.376,8.62
107.0,1602141.957,-1.6,1.601,2.9,4.0,2.472,2.472,9.379,8.621
108.0,1617274.963,-1.599,1.6,2.9,4.0,2.472,2.477,9.377,8.637
109.0,1632402.429,-1.599,1.6,2.9,4.0,2.477,2.473,9.393,8.624
110.0,1647543.771,-1.599,1.6,2.9,4.0,2.472,2.476,9.378,8.633
111.0,1662672.197,-1.599,1.6,2.9,4.0,2.476,2.475,9.389,8.631
112.0,1677788.158,-1.599,1.6,2.9,4.0,2.475,2.479,9.384,8.644
113.0,1692913.14,-1.599,1.6,2.9,4.0,2.478,2.476,9.396,8.633
114.0,1708025.731,-1.599,1.6,2.9,4.0,2.475,2.478,9.387,8.642
115.0,1723137.829,-1.599,1.6,2.9,4.0,2.477,2.468,9.394,8.606
116.0,1738262.498,-1.599,1.6,2.9,4.0,2.466,2.455,9.357,8.559
117.0,1753400.192,-1.599,1.6,2.9,4.0,2.454,2.457,9.317,8.562
118.0,1768536.028,-1.599,1.6,2.9,4.0,2.456,2.463,9.324,8.584
119.0,1783693.735,-1.6,1.6,2.9,4.0,2.463,2.485,9.347,8.664
120.0,1798790.512,-1.599,1.6,2.9,4.0,2.486,2.478,9.42,8.644
121.0,1813924.834,-1.6,1.6,2.9,4.0,2.475,2.455,9.389,8.559
122.0,1829035.649,-1.599,1.601,2.9,4.0,2.454,2.457,9.317,8.564
123.0,1844160.473,-1.599,1.6,2.9,4.0,2.455,2.45,9.321,8.539
124.0,1859266.674,-1.599,1.6,2.9,4.0,2.45,2.455,9.302,8.557
125.0,1874379.267,-1.599,1.6,2.9,4.0,2.454,2.459,9.317,8.571
126.0,1889471.4,-1.6,1.6,2.9,4.0,2.459,2.457,9.331,8.569
127.0,1904581.236,-1.599,1.6,2.9,4.0,2.456,2.464,9.322,8.59
128.0,1914026.997,-1.599,1.6,2.9,4.0,1.963,1.966,7.345,6.731
129.0,1929207.846,-1.599,1.6,2.9,4.0,2.464,2.451,9.35,8.541
130.0,1944330.262,-1.599,1.6,2.9,4.0,2.451,2.455,9.306,8.555
131.0,1959443.818,-1.599,1.6,2.9,4.0,2.454,2.458,9.317,8.568
132.0,1974568.861,-1.599,1.6,2.9,4.0,2.459,2.468,9.33,8.603
133.0,1989671.866,-1.599,1.6,2.9,4.0,2.466,2.452,9.356,8.544
134.0,2004723.799,-1.599,1.6,2.9,4.0,2.452,2.439,9.307,8.501
135.0,2019809.461,-1.599,1.6,2.9,4.0,2.439,2.446,9.264,8.521
136.0,2034945.263,-1.599,1.6,2.9,4.0,2.446,2.446,9.291,8.524
137.0,2050007.575,-1.599,1.6,2.9,4.0,2.444,2.452,9.28,8.541
138.0,2065099.21,-1.599,1.6,2.9,4.0,2.451,2.447,9.304,8.529
139.0,2080211.798,-1.599,1.6,2.9,4.0,2.446,2.444,9.287,8.513
140.0,2095328.115,-1.629,1.6,2.895,4.0,2.444,2.455,9.281,8.555
141.0,2110424.702,-1.599,1.6,2.9,4.0,2.455,2.458,9.318,8.566
142.0,2125540.781,-1.6,1.6,2.9,4.0,2.457,2.469,9.326,8.607
143.0,2140634.489,-1.6,1.6,2.9,4.0,2.47,2.481,9.367,8.65
144.0,2155654.407,-1.6,1.6,2.9,4.0,2.479,2.448,9.398,8.531
145.0,2170744.1,-1.599,1.6,2.9,4.076,2.445,2.446,9.284,8.522
146.0,2185867.506,-1.599,1.6,2.9,4.0,2.445,2.454,9.285,8.55
147.0,2200973.783,-1.6,1.6,2.9,4.0,2.454,2.472,9.314,8.617
148.0,2216056.469,-1.6,1.6,2.9,4.0,2.472,2.475,9.373,8.627
149.0,2231093.648,-1.599,1.6,2.9,4.0,2.474,2.454,9.378,8.554
150.0,2246149.225,-1.6,1.6,2.9,4.0,2.454,2.458,9.312,8.567
151.0,2261214.697,-1.6,1.6,2.9,4.0,2.457,2.45,9.325,8.539
152.0,2276326.94,-1.599,1.6,2.9,4.0,2.449,2.457,9.297,8.56
153.0,2291441.104,-1.6,1.6,2.9,4.0,2.457,2.47,9.323,8.607
154.0,2306521.788,-1.6,1.6,2.9,4.0,2.47,2.482,9.367,8.654
155.0,2321526.007,-1.599,1.6,2.899,4.0,2.481,2.463,9.401,8.588
156.0,2336588.89,-1.6,1.6,2.9,4.0,2.461,2.454,9.337,8.551
157.0,2351633.549,-1.599,1.6,2.9,4.0,2.453,2.443,9.308,8.508
158.0,2366710.635,-1.599,1.6,2.9,4.0,2.442,2.443,9.274,8.511
159.0,2381804.297,-1.599,1.6,2.9,4.0,2.443,2.454,9.276,8.549
160.0,2396872.137,-1.6,1.6,2.9,4.0,2.454,2.464,9.312,8.586
161.0,2411935.544,-1.6,1.6,2.9,4.0,2.464,2.47,9.345,8.61
162.0,2427028.371,-1.599,1.6,2.9,4.0,2.468,2.447,9.361,8.525
163.0,2442121.335,-1.6,1.6,2.9,4.073,2.445,2.453,9.283,8.547
164.0,2457212.076,-1.6,1.6,2.9,4.0,2.453,2.466,9.311,8.593
165.0,2472308.022,-1.6,1.6,2.9,4.0,2.466,2.479,9.353,8.641
166.0,2487381.066,-1.6,1.6,2.9,4.0,2.479,2.486,9.395,8.667
167.0,2502441.261,-1.6,1.6,2.9,4.0,2.484,2.476,9.412,8.629
168.0,2517456.656,-1.6,1.6,2.9,4.0,2.476,2.458,9.383,8.574
169.0,2526808.19,-1.599,1.6,2.9,4.0,1.946,1.942,7.282,6.64
170.0,2541941.938,-1.599,1.6,2.9,4.0,2.449,2.458,9.299,8.563
171.0,2557083.923,-1.6,1.6,2.9,4.0,2.459,2.489,9.33,8.674
172.0,2572154.5,-1.6,1.6,2.9,4.0,2.49,2.503,9.431,8.729
173.0,2587100.254,-1.6,1.6,2.9,4.0,2.502,2.452,9.47,8.552
174.0,2602149.322,-1.599,1.6,2.9,4.0,2.448,2.433,9.293,8.475
175.0,2617233.339,-1.599,1.6,2.9,4.0,2.432,2.427,9.24,8.449
176.0,2632298.48,-1.599,1.6,2.9,4.0,2.427,2.437,9.221,8.485
177.0,2647346.463,-1.6,1.6,2.9,4.0,2.437,2.442,9.25,8.502
178.0,2662389.987,-1.6,1.6,2.9,4.0,2.442,2.446,9.272,8.52
179.0,2677466.796,-1.599,1.6,2.9,4.0,2.443,2.417,9.277,8.413
180.0,2692451.051,-1.599,1.6,2.9,4.0,2.417,2.426,9.188,8.45
181.0,2707538.395,-1.599,1.6,2.9,4.0,2.425,2.427,9.216,8.451
182.0,2722604.589,-1.599,1.6,2.9,4.0,2.427,2.436,9.223,8.482
183.0,2737689.473,-1.599,1.6,2.898,4.0,2.436,2.436,9.252,8.484
184.0,2752730.371,-1.599,1.6,2.9,4.0,2.435,2.433,9.248,8.47
185.0,2767785.872,-1.599,1.6,2.9,4.0,2.431,2.417,9.236,8.412
186.0,2782850.017,-1.599,1.6,2.9,4.0,2.415,2.412,9.182,8.392
187.0,2797899.288,-1.599,1.6,2.9,4.0,2.411,2.415,9.17,8.403
188.0,2812981.794,-1.599,1.6,2.9,4.0,2.415,2.422,9.181,8.433
189.0,2828038.871,-1.599,1.6,2.9,4.0,2.422,2.423,9.207,8.437
190.0,2843070.511,-1.599,1.6,2.9,4.0,2.422,2.423,9.204,8.433
191.0,2858148.891,-1.599,1.6,2.9,4.0,2.422,2.423,9.206,8.434
192.0,2867323.68,-1.599,1.6,2.9,4.0,1.906,1.904,7.14,6.502
193.0,2882451.894,-1.599,1.6,2.9,4.0,2.418,2.415,9.195,8.402
194.0,2897486.517,-1.599,1.6,2.9,4.0,2.415,2.42,9.183,8.424
195.0,2912556.39,-1.599,1.6,2.9,4.0,2.42,2.422,9.2,8.43
196.0,2927603.439,-1.599,1.6,2.9,4.0,2.422,2.421,9.206,8.428
197.0,2942672.017,-1.599,1.6,2.9,4.034,2.418,2.41,9.193,8.385
198.0,2957723.541,-1.599,1.6,2.9,4.0,2.409,2.402,9.162,8.354
199.0,2972792.088,-1.599,1.6,2.9,4.0,2.401,2.409,9.135,8.381
200.0,2987845.931,-1.599,1.6,2.9,4.0,2.409,2.41,9.16,8.385
201.0,3002900.474,-1.599,1.6,2.9,4.0,2.409,2.411,9.162,8.387
202.0,3017969.399,-1.599,1.6,2.9,4.0,2.41,2.407,9.165,8.376
203.0,3032990.332,-1.599,1.6,2.9,4.0,2.406,2.392,9.152,8.32
204.0,3048043.57,-1.599,1.6,2.9,4.0,2.391,2.399,9.103,8.344
205.0,3057085.488,-1.599,1.6,2.9,4.0,1.871,1.879,7.017,6.412
206.0,3072198.948,-1.599,1.6,2.9,4.0,2.405,2.407,9.151,8.371
207.0,3087259.693,-1.599,1.6,2.9,4.0,2.407,2.405,9.155,8.365
208.0,3102364.387,-1.6,1.6,2.9,4.0,2.404,2.411,9.147,8.388
209.0,3117474.869,-1.599,1.6,2.9,4.0,2.412,2.43,9.174,8.457
210.0,3126695.724,-1.599,1.6,2.9,4.0,1.915,1.915,7.174,6.539
211.0,3141819.659,-1.599,1.6,2.9,4.0,2.425,2.42,9.218,8.422
212.0,3156885.537,-1.599,1.6,2.9,4.0,2.421,2.43,9.201,8.458
213.0,3171988.91,-1.6,1.6,2.9,4.0,2.431,2.451,9.234,8.535
214.0,3187063.294,-1.6,1.6,2.9,4.0,2.451,2.464,9.301,8.584
215.0,3202169.706,-1.6,1.6,2.9,4.0,2.461,2.441,9.335,8.494
216.0,3217209.129,-1.599,1.6,2.9,4.0,2.44,2.438,9.264,8.49
217.0,3232303.258,-1.6,1.6,2.9,4.0,2.436,2.427,9.252,8.445
218.0,3247343.057,-1.599,1.6,2.9,4.0,2.429,2.447,9.227,8.522
219.0,3262396.197,-1.6,1.6,2.9,4.0,2.447,2.451,9.286,8.535
220.0,3277497.656,-1.599,1.6,2.9,4.0,2.447,2.408,9.286,8.376
221.0,3292577.25,-1.599,1.6,2.9,4.0,2.406,2.39,9.154,8.312
222.0,3307662.161,-1.599,1.6,2.9,4.0,2.389,2.391,9.094,8.312
223.0,3322728.072,-1.599,1.6,2.9,4.0,2.39,2.397,9.099,8.334
224.0,3337770.24,-1.599,1.6,2.9,4.0,2.396,2.399,9.117,8.344
225.0,3352794.137,-1.599,1.6,2.9,4.0,2.4,2.4,9.129,8.348
226.0,3367820.411,-1.599,1.6,2.9,4.0,2.398,2.394,9.124,8.324
227.0,3382884.117,-1.599,1.6,2.9,4.0,2.392,2.384,9.105,8.287
228.0,3397951.692,-1.599,1.6,2.9,4.0,2.383,2.389,9.075,8.304
229.0,3413008.17,-1.599,1.6,2.9,4.0,2.388,2.392,9.091,8.319
230.0,3428030.99,-1.599,1.6,2.9,4.0,2.392,2.401,9.104,8.351
231.0,3443099.58,-1.599,1.6,2.9,4.0,2.4,2.4,9.132,8.346
232.0,3458125.636,-1.599,1.6,2.9,4.0,2.399,2.39,9.127,8.313
233.0,3473174.766,-1.599,1.6,2.9,4.0,2.388,2.384,9.091,8.288
234.0,3488219.673,-1.599,1.6,2.9,4.0,2.384,2.39,9.076,8.308
235.0,3503277.491,-1.599,1.6,2.9,4.0,2.39,2.392,9.096,8.318
236.0,3518348.673,-1.599,1.601,2.9,4.0,2.392,2.402,9.104,8.352
237.0,3533372.382,-1.599,1.6,2.9,4.0,2.401,2.384,9.134,8.293
238.0,3548382.131,-1.599,1.6,2.9,4.0,2.383,2.383,9.072,8.284
239.0,3563468.013,-1.599,1.6,2.9,4.0,2.382,2.385,9.072,8.292
240.0,3578552.188,-1.599,1.6,2.9,4.0,2.385,2.403,9.082,8.356
241.0,3593600.363,-1.599,1.6,2.9,4.0,2.403,2.406,9.139,8.366
242.0,3608691.642,-1.599,1.6,2.9,4.0,2.405,2.403,9.148,8.358
243.0,3623702.704,-1.599,1.6,2.9,4.0,2.402,2.387,9.136,8.302
244.0,3638759.343,-1.599,1.6,2.9,4.0,2.385,2.39,9.082,8.305
245.0,3653817.754,-1.599,1.6,2.9,4.0,2.388,2.387,9.091,8.297
246.0,3668829.238,-1.599,1.6,2.9,4.0,2.387,2.39,9.086,8.311
247.0,3683889.598,-1.599,1.6,2.9,4.0,2.39,2.401,9.099,8.349
248.0,3698925.966,-1.599,1.6,2.9,4.0,2.399,2.392,9.128,8.318
249.0,3713960.373,-1.599,1.6,2.9,4.0,2.392,2.396,9.106,8.335
250.0,3729025.722,-1.599,1.6,2.9,4.0,2.394,2.382,9.11,8.279
251.0,3744094.416,-1.599,1.6,2.9,4.0,2.382,2.383,9.07,8.284
252.0,3759143.702,-1.599,1.6,2.9,4.0,2.383,2.39,9.073,8.309
253.0,3774195.731,-1.599,1.6,2.9,4.0,2.389,2.394,9.094,8.323
254.0,3789210.008,-1.599,1.6,2.9,4.0,2.394,2.404,9.109,8.361
255.0,3804250.999,-1.599,1.6,2.9,4.0,2.402,2.385,9.137,8.288
256.0,3819227.101,-1.599,1.6,2.9,4.0,2.384,2.377,9.075,8.261
257.0,3834301.4,-1.599,1.6,2.9,4.0,2.376,2.385,9.052,8.29
258.0,3849390.334,-1.599,1.6,2.9,4.0,2.387,2.388,9.087,8.304
259.0,3864423.475,-1.599,1.6,2.9,4.0,2.386,2.397,9.083,8.334
260.0,3879456.235,-1.599,1.6,2.9,4.0,2.396,2.391,9.115,8.313
261.0,3894490.296,-1.599,1.6,2.9,4.0,2.39,2.386,9.094,8.292
262.0,3909532.798,-1.599,1.6,2.9,4.0,2.385,2.386,9.081,8.293
263.0,3924621.835,-1.599,1.6,2.9,4.0,2.386,2.398,9.084,8.337
264.0,3939662.718,-1.599,1.6,2.9,4.0,2.398,2.4,9.122,8.347
265.0,3954711.334,-1.599,1.6,2.9,4.0,2.399,2.396,9.127,8.331
266.0,3969688.926,-1.599,1.6,2.9,4.0,2.394,2.379,9.109,8.269
267.0,3984702.611,-1.599,1.6,2.9,4.0,2.378,2.377,9.056,8.261
268.0,3999737.491,-1.599,1.6,2.9,4.0,2.376,2.379,9.05,8.265
269.0,4014774.317,-1.599,1.6,2.9,4.0,2.378,2.385,9.058,8.289
270.0,4028473.784,-1.599,1.6,2.9,4.0,2.385,1.789,9.08,6.055
271.0,4043491.087,-1.599,1.6,2.899,4.0,2.371,2.376,9.032,8.259
272.0,4058540.218,-1.599,1.6,2.9,4.0,2.374,2.368,9.042,8.229
273.0,4073548.604,-1.599,1.601,2.9,4.0,2.368,2.367,9.021,8.224
274.0,4088559.566,-1.599,1.6,2.9,4.0,2.366,2.374,9.017,8.251
275.0,4103576.498,-1.599,1.6,2.9,4.0,2.373,2.377,9.04,8.261
276.0,4118541.829,-1.599,1.6,2.9,4.0,2.376,2.371,9.047,8.241
277.0,4133546.99,-1.599,1.6,2.9,4.0,2.37,2.376,9.031,8.259
278.0,4148573.346,-1.599,1.6,2.9,4.0,2.375,2.379,9.047,8.269
279.0,4163584.754,-1.599,1.6,2.9,4.0,2.379,2.38,9.059,8.272
280.0,4178622.611,-1.599,1.6,2.9,4.0,2.379,2.381,9.059,8.273
281.0,4193659.657,-1.599,1.6,2.9,4.0,2.38,2.39,9.064,8.308
282.0,4208709.057,-1.599,1.6,2.9,4.0,2.388,2.373,9.089,8.244
283.0,4223698.503,-1.599,1.6,2.9,4.0,2.373,2.368,9.039,8.226
284.0,4238772.827,-1.599,1.6,2.9,4.0,2.368,2.384,9.023,8.287
285.0,4253781.386,-1.599,1.6,2.9,4.0,2.384,2.381,9.076,8.275
286.0,4268825.14,-1.599,1.6,2.9,4.0,2.379,2.38,9.06,8.27
287.0,4283864.904,-1.599,1.6,2.897,4.0,2.379,2.38,9.061,8.275
288.0,4298886.907,-1.599,1.6,2.9,4.0,2.377,2.358,9.054,8.189
289.0,4313904.672,-1.599,1.6,2.9,4.0,2.358,2.37,8.988,8.23
290.0,4328926.95,-1.599,1.6,2.899,4.0,2.37,2.374,9.027,8.249
291.0,4343965.102,-1.599,1.6,2.9,4.0,2.373,2.373,9.039,8.244
292.0,4358986.313,-1.599,1.6,2.9,4.0,2.373,2.376,9.039,8.253
293.0,4373948.961,-1.599,1.6,2.9,4.0,2.374,2.368,9.043,8.228
294.0,4389011.719,-1.599,1.6,2.9,4.0,2.366,2.364,9.018,8.209
295.0,4404020.998,-1.599,1.6,2.9,4.0,2.364,2.369,9.01,8.228
296.0,4419070.263,-1.599,1.6,2.9,4.0,2.368,2.373,9.024,8.242
297.0,4434156.624,-1.599,1.6,2.9,4.0,2.373,2.372,9.033,8.238
298.0,4449182.541,-1.599,1.6,2.9,4.0,2.37,2.369,9.029,8.227
299.0,4464180.585,-1.599,1.6,2.9,4.0,2.367,2.36,9.019,8.194
300.0,4479218.076,-1.599,1.6,2.9,4.0,2.359,2.361,8.991,8.197
301.0,4494234.053,-1.599,1.6,2.9,4.0,2.36,2.365,8.997,8.215
302.0,4509263.052,-1.599,1.6,2.9,4.0,2.365,2.366,9.011,8.216
303.0,4524286.23,-1.599,1.6,2.9,4.0,2.365,2.365,9.011,8.212
304.0,4539308.8,-1.599,1.6,2.9,4.0,2.364,2.368,9.009,8.225
305.0,4554334.557,-1.599,1.6,2.9,4.0,2.366,2.357,9.016,8.182
306.0,4563123.615,-1.599,1.6,2.899,4.0,1.815,1.823,6.818,6.205
307.0,4571931.937,-1.599,1.6,2.9,4.0,1.817,1.829,6.826,6.229
308.0,4587007.712,-1.599,1.6,2.9,4.0,2.373,2.362,9.043,8.199
309.0,4602008.89,-1.599,1.6,2.9,4.0,2.362,2.359,9.003,8.193
310.0,4617038.804,-1.599,1.6,2.9,4.0,2.359,2.366,8.992,8.215
311.0,4632092.298,-1.599,1.6,2.9,4.0,2.365,2.364,9.013,8.21
312.0,4647127.131,-1.599,1.6,2.899,4.0,2.363,2.361,9.006,8.197
313.0,4662148.154,-1.599,1.6,2.9,4.0,2.36,2.362,8.996,8.199
314.0,4677167.541,-1.599,1.6,2.9,4.0,2.364,2.375,9.006,8.252
315.0,4692218.894,-1.599,1.6,2.9,4.0,2.374,2.37,9.042,8.231
316.0,4707242.802,-1.599,1.6,2.9,4.0,2.369,2.369,9.027,8.227
317.0,4722233.736,-1.599,1.6,2.9,4.0,2.368,2.364,9.023,8.212
318.0,4737281.206,-1.599,1.6,2.9,4.0,2.362,2.359,9.005,8.191
319.0,4752350.129,-1.599,1.6,2.9,4.0,2.358,2.358,8.988,8.183
320.0,4767401.95,-1.599,1.6,2.9,4.0,2.358,2.364,8.988,8.209
321.0,4782446.445,-1.599,1.6,2.9,4.0,2.363,2.361,9.005,8.198
322.0,4797479.14,-1.599,1.6,2.9,4.0,2.361,2.364,8.997,8.207
323.0,4812516.792,-1.599,1.6,2.9,4.0,2.364,2.359,9.007,8.189
324.0,4821292.076,-1.599,1.6,2.9,4.0,1.814,1.817,6.814,6.186
325.0,4836364.605,-1.599,1.6,2.9,4.0,2.358,2.345,8.992,8.138
326.0,4851354.605,-1.599,1.6,2.9,4.0,2.346,2.35,8.948,8.157
327.0,4866375.947,-1.599,1.6,2.9,4.0,2.351,2.362,8.963,8.202
328.0,4881419.332,-1.599,1.6,2.9,4.0,2.361,2.363,9.0,8.203
329.0,4896431.59,-1.599,1.6,2.9,4.0,2.363,2.36,9.003,8.197
330.0,4905157.521,-1.599,1.601,2.897,4.0,1.807,1.803,6.787,6.132
331.0,4920222.252,-1.599,1.6,2.9,4.0,2.351,2.341,8.969,8.123
332.0,4935288.002,-1.599,1.601,2.9,4.0,2.341,2.357,8.936,8.182
333.0,4950312.855,-1.599,1.6,2.9,4.0,2.356,2.357,8.983,8.182
334.0,4965341.11,-1.599,1.6,2.9,4.0,2.357,2.353,8.984,8.17
335.0,4980295.833,-1.599,1.6,2.9,4.0,2.353,2.353,8.972,8.17
336.0,4995344.583,-1.599,1.6,2.9,4.0,2.352,2.354,8.969,8.171
337.0,5010390.37,-1.599,1.6,2.9,4.0,2.353,2.339,8.976,8.115
338.0,5025519.309,-1.599,1.6,2.9,4.0,2.339,2.375,8.927,8.238
339.0,5040692.828,-1.599,1.6,2.9,4.0,2.373,2.345,9.042,8.136
340.0,5055747.294,-1.599,1.6,2.9,4.0,2.345,2.352,8.945,8.162
341.0,5070789.749,-1.599,1.6,2.9,4.0,2.351,2.337,8.965,8.106
342.0,5085834.181,-1.599,1.6,2.9,4.0,2.337,2.34,8.918,8.118
343.0,5100873.537,-1.599,1.6,2.9,4.0,2.339,2.343,8.926,8.129
344.0,5115903.217,-1.599,1.6,2.9,4.0,2.343,2.345,8.94,8.138
345.0,5130952.193,-1.599,1.6,2.9,4.0,2.345,2.347,8.946,8.143
346.0,5139656.297,-1.599,1.6,2.9,4.0,1.796,1.804,6.749,6.136
347.0,5154716.277,-1.599,1.6,2.9,4.0,2.351,2.335,8.968,8.099
348.0,5169765.821,-1.599,1.6,2.9,4.0,2.335,2.34,8.912,8.118
349.0,5184822.894,-1.599,1.6,2.9,4.0,2.34,2.343,8.93,8.129
350.0,5199858.776,-1.599,1.6,2.9,4.0,2.343,2.344,8.939,8.132
351.0,5214919.416,-1.599,1.6,2.9,4.0,2.343,2.346,8.938,8.138
352.0,5229942.699,-1.599,1.6,2.9,4.0,2.345,2.349,8.945,8.151
353.0,5244998.691,-1.599,1.6,2.9,4.0,2.347,2.332,8.952,8.086
354.0,5260011.495,-1.599,1.6,2.9,4.0,2.332,2.331,8.899,8.086
355.0,5275070.778,-1.599,1.6,2.9,4.0,2.331,2.342,8.898,8.124
356.0,5290088.223,-1.599,1.6,2.9,4.0,2.341,2.337,8.933,8.108
357.0,5298734.434,-1.599,1.6,2.9,4.0,1.782,1.792,6.7,6.092
358.0,5313831.048,-1.599,1.6,2.9,4.0,2.345,2.341,8.948,8.121
359.0,5328863.052,-1.599,1.6,2.9,4.0,2.34,2.336,8.928,8.101
360.0,5343946.373,-1.599,1.6,2.9,4.0,2.335,2.339,8.915,8.112
361.0,5358986.565,-1.599,1.6,2.9,4.0,2.339,2.343,8.927,8.127
362.0,5374038.503,-1.599,1.6,2.9,4.0,2.342,2.346,8.935,8.14
363.0,5389070.393,-1.599,1.6,2.9,4.0,2.346,2.343,8.947,8.131
364.0,5404099.198,-1.599,1.6,2.9,4.0,2.343,2.341,8.938,8.126
365.0,5412694.258,-1.599,1.6,2.9,4.0,1.776,1.777,6.675,6.034
366.0,5427795.427,-1.599,1.6,2.9,4.0,2.339,2.342,8.928,8.125
367.0,5442909.119,-1.599,1.6,2.9,4.0,2.341,2.34,8.935,8.117
368.0,5457907.661,-1.599,1.6,2.9,4.0,2.341,2.34,8.931,8.118
369.0,5472936.602,-1.599,1.6,2.9,4.0,2.34,2.345,8.929,8.136
370.0,5487974.697,-1.599,1.6,2.9,4.0,2.344,2.351,8.943,8.153
371.0,5503014.437,-1.599,1.6,2.9,4.0,2.35,2.327,8.962,8.07
372.0,5518085.955,-1.599,1.6,2.9,4.0,2.326,2.337,8.882,8.105
373.0,5533128.585,-1.599,1.6,2.9,4.0,2.337,2.34,8.918,8.117
374.0,5548145.919,-1.599,1.6,2.9,4.0,2.34,2.343,8.929,8.129
375.0,5563175.658,-1.599,1.6,2.9,4.0,2.342,2.341,8.936,8.12
376.0,5571861.452,-1.599,1.6,2.9,4.0,1.791,1.801,6.732,6.121
377.0,5586852.37,-1.599,1.6,2.9,4.0,2.347,2.336,8.952,8.101
378.0,5601909.06,-1.599,1.6,2.9,4.0,2.335,2.334,8.913,8.093
379.0,5616936.379,-1.599,1.601,2.9,4.0,2.334,2.339,8.907,8.115
380.0,5631976.321,-1.599,1.6,2.9,4.0,2.339,2.349,8.924,8.154
381.0,5647105.119,-1.599,1.6,2.9,4.0,2.348,2.34,8.963,8.118
382.0,5662136.629,-1.599,1.6,2.9,4.0,2.34,2.338,8.928,8.112
383.0,5677183.738,-1.599,1.6,2.9,4.0,2.337,2.331,8.919,8.084
384.0,5692218.191,-1.599,1.6,2.9,4.0,2.331,2.335,8.897,8.096
385.0,5707247.64,-1.599,1.6,2.9,4.0,2.334,2.336,8.909,8.103
386.0,5722264.616,-1.599,1.6,2.9,4.0,2.336,2.335,8.915,8.097
387.0,5737284.001,-1.599,1.6,2.9,4.0,2.334,2.336,8.908,8.101
388.0,5752302.257,-1.599,1.6,2.9,4.0,2.335,2.336,8.912,8.106
389.0,5767343.571,-1.599,1.6,2.9,4.0,2.335,2.328,8.91,8.072
390.0,5782374.916,-1.599,1.6,2.9,4.0,2.328,2.331,8.889,8.083
391.0,5797407.648,-1.599,1.6,2.9,4.0,2.331,2.337,8.896,8.104
392.0,5812411.897,-1.599,1.6,2.9,4.0,2.337,2.335,8.917,8.097
393.0,5827437.952,-1.599,1.6,2.9,4.0,2.334,2.334,8.909,8.095
394.0,5842372.109,-1.599,1.6,2.9,4.0,2.335,2.326,8.91,8.064
395.0,5857424.161,-1.599,1.6,2.9,4.0,2.324,2.334,8.874,8.091
396.0,5872454.784,-1.599,1.6,2.9,4.0,2.333,2.324,8.902,8.056
397.0,5881048.449,-1.599,1.6,2.9,4.0,1.769,1.782,6.653,6.055
398.0,5889652.595,-1.599,1.6,2.9,4.0,1.778,1.778,6.684,6.042
399.0,5898202.994,-1.599,1.6,2.9,4.0,1.768,1.764,6.648,5.992
400.0,5906754.678,-1.599,1.6,2.9,4.0,1.763,1.769,6.633,6.008
401.0,5921908.655,-1.599,1.6,2.9,4.0,2.334,2.337,8.912,8.104
402.0,5937001.43,-1.599,1.6,2.9,4.0,2.336,2.32,8.919,8.035
403.0,5952046.258,-1.599,1.6,2.9,4.0,2.32,2.323,8.86,8.051
404.0,5967081.606,-1.599,1.6,2.9,4.0,2.323,2.327,8.87,8.066
405.0,5982106.742,-1.599,1.6,2.9,4.0,2.326,2.33,8.881,8.077
406.0,5997138.453,-1.599,1.6,2.9,4.0,2.33,2.328,8.894,8.073
407.0,6012186.14,-1.599,1.6,2.9,4.0,2.328,2.322,8.887,8.054
408.0,6027281.561,-1.599,1.6,2.9,4.0,2.32,2.314,8.861,8.018
409.0,6042314.798,-1.599,1.6,2.9,4.0,2.315,2.325,8.842,8.058
410.0,6057365.664,-1.599,1.6,2.9,4.0,2.325,2.331,8.878,8.083
411.0,6072386.049,-1.599,1.6,2.9,4.0,2.331,2.328,8.896,8.069
412.0,6087391.826,-1.599,1.6,2.9,4.0,2.327,2.328,8.884,8.072
413.0,6102321.172,-1.599,1.6,2.9,4.0,2.328,2.297,8.885,7.961
414.0,6117348.822,-1.599,1.6,2.9,4.081,2.295,2.314,8.776,8.019
415.0,6132391.945,-1.599,1.6,2.9,4.0,2.314,2.322,8.841,8.049
416.0,6147410.878,-1.599,1.6,2.9,4.0,2.322,2.325,8.867,8.061
417.0,6162435.783,-1.599,1.6,2.9,4.0,2.324,2.321,8.875,8.047
418.0,6177447.727,-1.599,1.6,2.9,4.0,2.321,2.323,8.863,8.055
419.0,6192491.788,-1.599,1.6,2.9,4.0,2.321,2.306,8.863,7.989
420.0,6207577.205,-1.599,1.6,2.9,4.0,2.306,2.313,8.813,8.012
421.0,6222581.916,-1.599,1.6,2.9,4.0,2.312,2.312,8.834,8.012
422.0,6237593.319,-1.599,1.6,2.9,4.0,2.312,2.315,8.832,8.031
423.0,6252655.259,-1.599,1.6,2.9,4.0,2.314,2.316,8.843,8.025
424.0,6267688.025,-1.611,1.6,2.896,4.0,2.315,2.316,8.844,8.025
425.0,6282728.979,-1.599,1.6,2.9,4.0,2.314,2.308,8.842,7.994
426.0,6297748.973,-1.599,1.6,2.9,4.0,2.307,2.311,8.818,8.005
427.0,6312814.097,-1.599,1.6,2.9,4.0,2.309,2.312,8.824,8.009
428.0,6327852.549,-1.599,1.6,2.9,4.0,2.312,2.314,8.834,8.017
429.0,6342862.694,-1.599,1.6,2.9,4.0,2.313,2.308,8.837,7.995
430.0,6357874.316,-1.599,1.6,2.9,4.0,2.308,2.31,8.819,8.008
431.0,6372924.577,-1.599,1.6,2.9,4.0,2.308,2.307,8.822,7.992
432.0,6387922.863,-1.599,1.6,2.9,4.0,2.307,2.301,8.816,7.97
433.0,6402959.339,-1.599,1.6,2.9,4.0,2.3,2.31,8.795,8.003
434.0,6417968.796,-1.599,1.6,2.9,4.0,2.309,2.306,8.823,7.986
435.0,6432982.404,-1.599,1.6,2.9,4.0,2.305,2.312,8.81,8.009
436.0,6447971.777,-1.599,1.6,2.9,4.0,2.311,2.299,8.829,7.965
437.0,6462968.313,-1.599,1.6,2.9,4.0,2.299,2.308,8.789,7.994
438.0,6477974.461,-1.599,1.6,2.9,4.0,2.307,2.31,8.817,8.002
439.0,6492997.516,-1.599,1.6,2.9,4.0,2.309,2.305,8.824,7.985
440.0,6508011.957,-1.599,1.6,2.9,4.0,2.304,2.306,8.807,7.988
441.0,6523057.073,-1.599,1.6,2.9,4.0,2.305,2.312,8.81,8.008
442.0,6538029.12,-1.599,1.6,2.9,4.0,2.311,2.299,8.829,7.964
443.0,6553044.66,-1.599,1.6,2.9,4.0,2.298,2.3,8.788,7.965
444.0,6568082.046,-1.599,1.6,2.9,4.0,2.299,2.307,8.79,7.989
445.0,6583028.789,-1.599,1.6,2.9,4.0,2.307,2.298,8.813,7.961
446.0,6598025.329,-1.599,1.6,2.9,4.0,2.298,2.303,8.784,7.977
447.0,6613039.174,-1.599,1.6,2.9,4.0,2.302,2.302,8.8,7.977
448.0,6628149.282,-1.599,1.6,2.9,4.0,2.299,2.289,8.792,7.919
449.0,6643175.499,-1.599,1.6,2.9,4.0,2.29,2.299,8.757,7.959
450.0,6658291.346,-1.599,1.601,2.9,4.0,2.298,2.3,8.786,7.964
451.0,6673296.46,-1.599,1.6,2.9,4.0,2.3,2.298,8.793,7.956
452.0,6688318.883,-1.599,1.6,2.9,4.0,2.297,2.302,8.784,7.974
453.0,6703275.916,-1.599,1.601,2.9,4.0,2.302,2.279,8.8,7.895
454.0,6718361.399,-1.599,1.6,2.9,4.0,2.276,2.289,8.716,7.919
455.0,6733341.04,-1.599,1.6,2.9,4.0,2.29,2.285,8.758,7.912
456.0,6748397.808,-1.599,1.601,2.9,4.0,2.284,2.296,8.741,7.951
457.0,6763439.653,-1.599,1.6,2.9,4.0,2.296,2.298,8.778,7.956
458.0,6778469.557,-1.599,1.6,2.9,4.0,2.298,2.3,8.785,7.964
459.0,6793443.993,-1.599,1.6,2.9,4.0,2.298,2.289,8.787,7.921
460.0,6808517.786,-1.599,1.6,2.9,4.0,2.289,2.293,8.756,7.938
461.0,6823543.238,-1.599,1.6,2.9,4.0,2.292,2.297,8.765,7.95
462.0,6838549.893,-1.599,1.601,2.9,4.0,2.296,2.309,8.779,7.996
463.0,6853626.49,-1.599,1.6,2.9,4.0,2.308,2.299,8.813,7.961
464.0,6868637.912,-1.599,1.6,2.9,4.0,2.299,2.292,8.789,7.939
465.0,6883680.938,-1.599,1.6,2.9,4.0,2.29,2.266,8.758,7.838
466.0,6898729.558,-1.599,1.6,2.9,4.0,2.265,2.271,8.678,7.856
467.0,6913752.159,-1.599,1.6,2.9,4.0,2.271,2.284,8.693,7.905
468.0,6928769.599,-1.599,1.6,2.9,4.0,2.284,2.286,8.738,7.914
469.0,6943777.796,-1.599,1.6,2.9,4.0,2.285,2.287,8.744,7.917
470.0,6958800.929,-1.599,1.6,2.9,4.0,2.287,2.288,8.749,7.921
471.0,6973827.675,-1.599,1.6,2.9,4.0,2.286,2.276,8.747,7.876
472.0,6988883.149,-1.599,1.6,2.9,4.0,2.275,2.278,8.709,7.882
473.0,7003895.818,-1.599,1.6,2.9,4.0,2.278,2.283,8.718,7.9
474.0,7018893.713,-1.599,1.6,2.9,4.0,2.282,2.283,8.732,7.903
475.0,7033923.828,-1.599,1.6,2.9,4.0,2.283,2.286,8.735,7.91
476.0,7048876.483,-1.599,1.6,2.9,4.0,2.285,2.268,8.742,7.85
477.0,7063885.454,-1.599,1.6,2.9,4.0,2.266,2.286,8.682,7.908
478.0,7072173.066,-1.599,1.6,2.9,4.0,1.707,1.708,6.431,5.786
479.0,7087271.516,-1.599,1.6,2.9,4.0,2.285,2.286,8.747,7.912
480.0,7102286.972,-1.599,1.6,2.9,4.0,2.285,2.283,8.742,7.9
481.0,7117309.63,-1.599,1.6,2.9,4.0,2.283,2.284,8.734,7.907
482.0,7125614.904,-1.599,1.6,2.9,4.0,1.707,1.716,6.432,5.813
483.0,7140675.764,-1.599,1.6,2.9,4.0,2.289,2.272,8.756,7.856
484.0,7155696.064,-1.599,1.6,2.9,4.0,2.272,2.269,8.697,7.85
485.0,7170722.928,-1.599,1.6,2.9,4.0,2.268,2.284,8.686,7.902
486.0,7185757.001,-1.599,1.6,2.9,4.0,2.284,2.283,8.74,7.9
487.0,7200781.782,-1.599,1.601,2.898,4.0,2.282,2.282,8.733,7.896
488.0,7215813.831,-1.599,1.6,2.9,4.0,2.282,2.286,8.732,7.911
489.0,7230812.68,-1.599,1.6,2.9,4.0,2.282,2.268,8.733,7.841
490.0,7245826.669,-1.599,1.6,2.9,4.0,2.268,2.258,8.685,7.81
491.0,7260845.223,-1.599,1.6,2.9,4.0,2.258,2.278,8.651,7.884
492.0,7275866.903,-1.599,1.6,2.9,4.0,2.278,2.282,8.718,7.895
493.0,7290876.995,-1.599,1.6,2.9,4.0,2.281,2.28,8.73,7.891
494.0,7305869.302,-1.599,1.6,2.9,4.0,2.28,2.269,8.724,7.853
495.0,7320948.248,-1.599,1.6,2.9,4.0,2.266,2.259,8.68,7.807
496.0,7336064.531,-1.599,1.6,2.9,4.0,2.258,2.27,8.654,7.849
497.0,7351083.66,-1.599,1.6,2.9,4.0,2.271,2.277,8.695,7.88
498.0,7366140.387,-1.599,1.6,2.9,4.0,2.276,2.279,8.714,7.883
499.0,7381152.485,-1.599,1.6,2.9,4.0,2.278,2.276,8.717,7.872
500.0,7396083.394,-1.599,1.6,2.9,4.0,2.275,2.26,8.709,7.818
501.0,7411181.295,-1.599,1.6,2.9,4.0,2.257,2.263,8.648,7.826
502.0,7426198.703,-1.599,1.6,2.9,4.0,2.261,2.271,8.663,7.854
503.0,7441181.564,-1.599,1.6,2.9,4.0,2.272,2.273,8.695,7.862
504.0,7456118.992,-1.599,1.6,2.9,4.0,2.271,2.27,8.691,7.846
505.0,7471096.439,-1.599,1.6,2.9,4.0,2.269,2.27,8.687,7.854
506.0,7486085.709,-1.599,1.6,2.9,4.0,2.27,2.269,8.691,7.848
507.0,7501113.658,-1.599,1.6,2.9,4.0,2.267,2.268,8.683,7.844
508.0,7516133.092,-1.599,1.6,2.9,4.0,2.268,2.271,8.684,7.855
509.0,7531148.795,-1.599,1.6,2.9,4.0,2.271,2.273,8.694,7.862
510.0,7546160.276,-1.599,1.6,2.9,4.0,2.272,2.273,8.698,7.862
511.0,7561156.784,-1.599,1.6,2.9,4.0,2.272,2.27,8.698,7.854
512.0,7576210.211,-1.599,1.6,2.9,4.0,2.267,2.263,8.681,7.823
513.0,7591200.178,-1.599,1.6,2.9,4.0,2.264,2.268,8.669,7.843
514.0,7606205.928,-1.599,1.6,2.9,4.0,2.267,2.27,8.681,7.852
515.0,7621208.898,-1.599,1.6,2.9,4.0,2.27,2.271,8.689,7.858
516.0,7636211.668,-1.599,1.6,2.9,4.0,2.271,2.271,8.693,7.854
517.0,7651122.758,-1.599,1.6,2.9,4.0,2.27,2.245,8.691,7.765
518.0,7666176.624,-1.599,1.6,2.9,4.0,2.243,2.239,8.603,7.739
519.0,7681216.769,-1.599,1.6,2.9,4.0,2.244,2.276,8.61,7.89
520.0,7696164.697,-1.599,1.6,2.9,4.0,2.271,2.263,8.694,7.824
521.0,7711170.007,-1.599,1.6,2.9,4.0,2.262,2.262,8.664,7.824
522.0,7726161.22,-1.599,1.6,2.9,4.0,2.26,2.256,8.661,7.801
523.0,7741079.811,-1.599,1.6,2.9,4.0,2.256,2.25,8.644,7.784
524.0,7756042.379,-1.599,1.6,2.9,4.0,2.247,2.247,8.616,7.769
525.0,7771036.64,-1.599,1.6,2.9,4.0,2.247,2.253,8.613,7.783
526.0,7786097.454,-1.599,1.6,2.9,4.0,2.254,2.26,8.635,7.814
527.0,7801084.46,-1.599,1.6,2.9,4.0,2.259,2.261,8.654,7.817
528.0,7816098.14,-1.599,1.6,2.9,4.0,2.26,2.264,8.658,7.831
529.0,7831094.621,-1.599,1.6,2.9,4.0,2.262,2.242,8.662,7.748
530.0,7846102.62,-1.599,1.601,2.9,4.0,2.241,2.24,8.593,7.736
531.0,7861210.074,-1.599,1.6,2.9,4.0,2.239,2.251,8.587,7.778
532.0,7876192.022,-1.599,1.6,2.9,4.0,2.251,2.256,8.627,7.796
533.0,7891220.76,-1.599,1.6,2.9,4.0,2.256,2.264,8.643,7.83
534.0,7906235.824,-1.599,1.601,2.9,4.0,2.263,2.266,8.667,7.833
535.0,7921246.72,-1.599,1.6,2.898,4.0,2.264,2.23,8.669,7.703
536.0,7936299.776,-1.599,1.6,2.9,4.0,2.228,2.238,8.55,7.73
537.0,7951330.879,-1.599,1.6,2.9,4.0,2.239,2.258,8.588,7.804
538.0,7966305.697,-1.599,1.6,2.9,4.0,2.257,2.256,8.648,7.8
539.0,7981292.152,-1.599,1.6,2.9,4.0,2.256,2.26,8.643,7.815
540.0,7996265.889,-1.599,1.6,2.9,4.0,2.259,2.247,8.654,7.774
541.0,8011331.679,-1.599,1.6,2.9,4.0,2.245,2.229,8.61,7.7
542.0,8026375.86,-1.599,1.6,2.9,4.0,2.228,2.24,8.551,7.734
543.0,8041375.13,-1.599,1.6,2.9,4.0,2.241,2.256,8.592,7.799
544.0,8056259.49,-1.599,1.6,2.9,4.0,2.257,2.242,8.648,7.75
545.0,8071200.937,-1.599,1.6,2.9,4.0,2.24,2.253,8.587,7.787
546.0,8086103.516,-1.599,1.6,2.9,4.0,2.251,2.232,8.627,7.712
547.0,8101168.474,-1.599,1.6,2.9,4.0,2.23,2.239,8.557,7.731
548.0,8116158.278,-1.599,1.6,2.9,4.0,2.239,2.246,8.586,7.762
549.0,8131190.037,-1.599,1.6,2.9,4.0,2.245,2.25,8.608,7.777
550.0,8146193.757,-1.599,1.6,2.9,4.0,2.249,2.25,8.621,7.777
551.0,8161201.728,-1.599,1.6,2.9,4.0,2.25,2.251,8.622,7.78
552.0,8176127.276,-1.599,1.6,2.9,4.0,2.249,2.223,8.619,7.675
553.0,8191196.24,-1.599,1.6,2.9,4.0,2.222,2.232,8.529,7.709
554.0,8206181.866,-1.599,1.6,2.9,4.0,2.233,2.242,8.566,7.746
555.0,8221183.937,-1.599,1.6,2.9,4.0,2.242,2.247,8.595,7.765
556.0,8236179.566,-1.599,1.6,2.9,4.0,2.246,2.244,8.608,7.756
557.0,8251167.127,-1.599,1.6,2.9,4.0,2.243,2.251,8.6,7.779
558.0,8266202.161,-1.599,1.6,2.9,4.0,2.249,2.216,8.619,7.65
559.0,8281230.086,-1.599,1.6,2.9,4.0,2.216,2.21,8.506,7.628
560.0,8296266.296,-1.599,1.6,2.9,4.0,2.21,2.24,8.492,7.739
561.0,8311279.984,-1.599,1.6,2.9,4.0,2.24,2.244,8.589,7.753
562.0,8326313.947,-1.599,1.6,2.9,4.0,2.243,2.243,8.601,7.749
563.0,8341295.969,-1.599,1.6,2.9,4.0,2.242,2.241,8.596,7.745
564.0,8356370.912,-1.599,1.6,2.9,4.0,2.24,2.24,8.588,7.74
565.0,8371349.078,-1.599,1.6,2.9,4.0,2.238,2.221,8.582,7.663
566.0,8386264.117,-1.599,1.6,2.9,4.0,2.222,2.251,8.527,7.779
567.0,8401284.499,-1.599,1.6,2.899,4.0,2.25,2.248,8.622,7.77
568.0,8416247.03,-1.599,1.6,2.9,4.0,2.248,2.245,8.615,7.76
569.0,8431152.957,-1.599,1.6,2.9,4.0,2.244,2.221,8.603,7.675
570.0,8446167.865,-1.599,1.601,2.9,4.0,2.22,2.243,8.522,7.748
571.0,8461163.637,-1.599,1.6,2.9,4.0,2.242,2.233,8.594,7.71
572.0,8469158.067,-1.599,1.6,2.9,4.0,1.635,1.65,6.173,5.575
573.0,8484232.494,-1.599,1.6,2.9,4.0,2.246,2.237,8.614,7.727
574.0,8499243.182,-1.599,1.6,2.9,4.0,2.237,2.238,8.58,7.73
575.0,8507255.981,-1.599,1.6,2.9,4.0,1.641,1.652,6.197,5.58
576.0,8522208.508,-1.599,1.6,2.9,4.0,2.245,2.216,8.609,7.649
577.0,8537282.129,-1.599,1.6,2.9,4.0,2.215,2.234,8.501,7.713
578.0,8552250.583,-1.599,1.6,2.9,4.0,2.235,2.227,8.571,7.69
579.0,8567242.872,-1.599,1.6,2.9,4.0,2.227,2.236,8.545,7.723
580.0,8582252.639,-1.599,1.6,2.9,4.0,2.235,2.234,8.571,7.717
581.0,8597252.464,-1.599,1.6,2.9,4.0,2.234,2.238,8.569,7.731
582.0,8612166.469,-1.599,1.6,2.9,4.0,2.237,2.221,8.581,7.672
583.0,8627146.403,-1.599,1.6,2.9,4.0,2.221,2.229,8.523,7.698
584.0,8642179.783,-1.599,1.6,2.9,4.0,2.228,2.229,8.548,7.699
585.0,8657136.523,-1.599,1.6,2.9,4.0,2.229,2.219,8.551,7.674
586.0,8672160.988,-1.599,1.6,2.9,4.0,2.218,2.227,8.52,7.693
587.0,8687157.317,-1.599,1.6,2.9,4.0,2.227,2.23,8.543,7.703
588.0,8695003.526,-1.599,1.6,2.9,4.0,1.613,1.606,6.091,5.416
589.0,8710090.229,-1.599,1.6,2.899,4.0,2.219,2.229,8.528,7.698
590.0,8725081.733,-1.599,1.6,2.9,4.0,2.23,2.227,8.554,7.691
591.0,8740088.417,-1.599,1.6,2.9,4.0,2.227,2.23,8.545,7.704
592.0,8755077.483,-1.599,1.6,2.9,4.0,2.229,2.228,8.553,7.697
593.0,8770102.346,-1.599,1.6,2.9,4.0,2.228,2.239,8.549,7.732
594.0,8785158.263,-1.599,1.6,2.9,4.0,2.236,2.218,8.574,7.651
595.0,8800127.921,-1.599,1.6,2.9,4.0,2.22,2.228,8.519,7.695
596.0,8815106.664,-1.599,1.6,2.9,4.0,2.227,2.224,8.544,7.68
597.0,8830087.43,-1.599,1.6,2.9,4.0,2.224,2.228,8.534,7.692
598.0,8845077.468,-1.599,1.6,2.9,4.0,2.227,2.225,8.546,7.686
599.0,8860064.925,-1.599,1.6,2.9,4.0,2.226,2.221,8.54,7.678
600.0,8867843.355,-1.599,1.6,2.9,4.0,1.597,1.592,6.035,5.364
601.0,8882941.253,-1.599,1.6,2.9,4.0,2.212,2.221,8.502,7.667
602.0,8898094.176,-1.599,1.6,2.9,4.0,2.219,2.216,8.521,7.648
603.0,8913078.147,-1.599,1.6,2.9,4.0,2.217,2.223,8.512,7.677
604.0,8928083.225,-1.599,1.6,2.9,4.0,2.222,2.226,8.53,7.688
605.0,8943031.093,-1.599,1.6,2.9,4.0,2.226,2.222,8.542,7.679
606.0,8958043.651,-1.599,1.6,2.9,4.0,2.219,2.196,8.517,7.576
607.0,8973083.761,-1.599,1.6,2.9,4.0,2.195,2.194,8.439,7.565
608.0,8988076.679,-1.599,1.6,2.9,4.0,2.192,2.192,8.429,7.558
609.0,9003091.735,-1.599,1.6,2.9,4.0,2.193,2.216,8.43,7.651
610.0,9018087.17,-1.599,1.6,2.9,4.0,2.216,2.22,8.508,7.665
611.0,9033070.051,-1.599,1.6,2.9,4.0,2.22,2.206,8.521,7.619
612.0,9048117.859,-1.599,1.6,2.9,4.0,2.202,2.193,8.463,7.562
613.0,9063125.573,-1.599,1.6,2.9,4.0,2.192,2.191,8.427,7.558
614.0,9078095.839,-1.599,1.601,2.9,4.0,2.192,2.209,8.425,7.627
615.0,9093101.184,-1.599,1.6,2.9,4.0,2.209,2.211,8.485,7.63
616.0,9108077.01,-1.599,1.6,2.9,4.0,2.21,2.208,8.489,7.623
617.0,9117830.959,-1.599,1.6,3.406,4.0,2.209,0.035,8.484,0.136