File: Li-ion_Batteries/UL-PUR_R10-OV5_18650_NCA_23C_2.5-96.5_0.5-0.5C_e_cycle_data.csv
Cycle_Index,Test_Time (s),Min_Current (A),Max_Current (A),Min_Voltage (V),Max_Voltage (V),Charge_Capacity (Ah),Discharge_Capacity (Ah),Charge_Energy (Wh),Discharge_Energy (Wh)
1.0,15489.921,-1.134,1.133,2.9,4.0,0.831,2.715,3.278,9.468
2.0,37328.144,-1.134,1.133,2.9,4.0,2.711,2.711,10.144,9.456
3.0,59266.851,-1.134,1.133,2.9,4.0,2.71,2.71,10.142,9.448
4.0,81182.146,-1.134,1.133,2.9,4.0,2.708,2.709,10.138,9.447
5.0,102963.385,-1.134,1.134,2.9,4.0,2.709,2.709,10.136,9.447
6.0,124755.77,-1.134,1.133,2.9,4.0,2.709,2.71,10.131,9.459
7.0,146527.446,-1.134,1.133,2.9,4.0,2.71,2.71,10.137,9.457
8.0,168347.047,-1.134,1.133,2.9,4.001,2.709,2.709,10.134,9.452
9.0,190198.451,-1.134,1.133,2.9,4.0,2.707,2.708,10.13,9.447
10.0,212027.142,-1.134,1.134,2.9,4.0,2.707,2.707,10.127,9.443
11.0,233855.466,-1.134,1.134,2.9,4.0,2.707,2.708,10.128,9.447
12.0,255603.628,-1.134,1.133,2.9,4.001,2.706,2.706,10.126,9.442
13.0,277402.228,-1.134,1.133,2.9,4.0,2.706,2.706,10.124,9.44
14.0,299146.385,-1.134,1.133,2.9,4.0,2.705,2.705,10.12,9.436
15.0,320966.547,-1.134,1.133,2.9,4.0,2.705,2.705,10.121,9.439
16.0,342721.299,-1.134,1.134,2.9,4.0,2.704,2.704,10.116,9.43
17.0,364608.206,-1.134,1.133,2.9,4.0,2.703,2.704,10.116,9.428
18.0,386628.264,-1.134,1.133,2.9,4.0,2.702,2.701,10.114,9.409
19.0,408632.344,-1.134,1.133,2.9,4.0,2.699,2.701,10.11,9.413
20.0,430553.56,-1.134,1.134,2.9,4.0,2.7,2.7,10.109,9.412
21.0,452466.504,-1.134,1.133,2.9,4.0,2.7,2.7,10.106,9.412
22.0,474230.142,-1.134,1.133,2.9,4.0,2.701,2.703,10.107,9.428
23.0,496010.866,-1.134,1.133,2.9,4.0,2.702,2.702,10.108,9.422
24.0,517786.689,-1.134,1.133,2.9,4.0,2.7,2.701,10.105,9.421
25.0,539553.242,-1.134,1.134,2.9,4.0,2.7,2.701,10.104,9.422
26.0,561319.396,-1.134,1.134,2.9,4.0,2.7,2.701,10.103,9.419
27.0,583096.348,-1.134,1.134,2.9,4.001,2.7,2.7,10.101,9.417
28.0,604878.277,-1.134,1.133,2.9,4.001,2.699,2.7,10.1,9.415
29.0,626591.405,-1.134,1.133,2.9,4.001,2.699,2.699,10.098,9.415
30.0,648241.194,-1.134,1.134,2.9,4.001,2.7,2.7,10.098,9.424
31.0,669939.987,-1.134,1.133,2.9,4.0,2.699,2.7,10.097,9.42
32.0,691860.538,-1.134,1.133,2.9,4.0,2.698,2.696,10.092,9.396
33.0,713796.746,-1.134,1.134,2.9,4.0,2.695,2.695,10.086,9.394
34.0,735734.393,-1.134,1.134,2.9,4.0,2.695,2.696,10.086,9.397
35.0,757688.058,-1.134,1.134,2.9,4.0,2.695,2.695,10.087,9.391
36.0,779645.942,-1.134,1.133,2.9,4.0,2.694,2.694,10.085,9.389
37.0,801499.788,-1.134,1.134,2.9,4.001,2.693,2.694,10.082,9.386
38.0,823378.39,-1.134,1.133,2.9,4.0,2.693,2.693,10.081,9.382
39.0,845308.428,-1.134,1.133,2.9,4.0,2.692,2.692,10.078,9.379
40.0,867178.263,-1.134,1.133,2.9,4.0,2.691,2.693,10.076,9.38
41.0,889079.047,-1.134,1.134,2.9,4.0,2.691,2.691,10.077,9.376
42.0,910956.722,-1.134,1.133,2.9,4.0,2.691,2.691,10.073,9.377
43.0,932894.725,-1.134,1.133,2.9,4.0,2.69,2.69,10.073,9.372
44.0,954846.486,-1.134,1.134,2.9,4.0,2.69,2.689,10.07,9.367
45.0,976694.626,-1.134,1.133,2.9,4.0,2.689,2.691,10.068,9.376
46.0,998548.402,-1.134,1.133,2.9,4.0,2.69,2.691,10.07,9.375
47.0,1020456.672,-1.134,1.133,2.9,4.0,2.69,2.69,10.068,9.368
48.0,1042295.356,-1.134,1.133,2.9,4.0,2.689,2.689,10.066,9.365
49.0,1059802.784,-1.6,1.6,2.9,4.0,2.694,2.69,10.164,9.258
50.0,1077275.861,-1.6,1.6,2.9,4.0,2.689,2.69,10.155,9.26
51.0,1094696.03,-1.6,1.6,2.9,4.001,2.689,2.689,10.152,9.261
52.0,1112101.513,-1.6,1.6,2.9,4.001,2.689,2.689,10.152,9.258
53.0,1129464.528,-1.6,1.6,2.9,4.0,2.688,2.688,10.15,9.25
54.0,1146998.92,-1.6,1.6,2.9,4.0,2.688,2.688,10.152,9.25
55.0,1162757.268,-1.6,1.6,2.9,4.0,2.687,2.495,10.149,8.689
56.0,1178076.823,-1.6,1.6,2.9,4.0,2.498,2.494,9.478,8.689
57.0,1193291.845,-1.6,1.6,2.9,4.0,2.496,2.478,9.471,8.638
58.0,1208521.623,-1.6,1.6,2.9,4.0,2.48,2.48,9.416,8.641
59.0,1223744.392,-1.6,1.6,2.9,4.001,2.481,2.482,9.42,8.649
60.0,1238985.824,-1.6,1.6,2.9,4.0,2.483,2.487,9.425,8.662
61.0,1254240.142,-1.6,1.6,2.9,4.0,2.488,2.482,9.446,8.644
62.0,1269530.948,-1.6,1.6,2.9,4.0,2.484,2.49,9.43,8.669
63.0,1284823.687,-1.6,1.6,2.9,4.0,2.49,2.491,9.453,8.674
64.0,1300109.195,-1.6,1.6,2.9,4.0,2.492,2.48,9.459,8.635
65.0,1315338.962,-1.6,1.6,2.9,4.0,2.481,2.464,9.421,8.585
66.0,1330606.903,-1.6,1.6,2.9,4.001,2.466,2.483,9.37,8.64
67.0,1345912.222,-1.6,1.6,2.9,4.0,2.484,2.471,9.433,8.603
68.0,1361153.492,-1.6,1.6,2.9,4.0,2.471,2.483,9.386,8.643
69.0,1376383.066,-1.6,1.6,2.9,4.001,2.484,2.47,9.433,8.603
70.0,1391656.051,-1.6,1.6,2.9,4.0,2.472,2.475,9.389,8.613
71.0,1406899.643,-1.6,1.6,2.9,4.0,2.477,2.463,9.407,8.574
72.0,1422140.98,-1.6,1.6,2.9,4.0,2.464,2.467,9.362,8.587
73.0,1437439.843,-1.6,1.6,2.9,4.0,2.469,2.475,9.381,8.614
74.0,1452696.41,-1.6,1.6,2.9,4.0,2.476,2.467,9.405,8.589
75.0,1467951.322,-1.6,1.6,2.9,4.0,2.469,2.464,9.38,8.579
76.0,1477299.322,-1.6,1.6,2.9,4.0,1.938,1.949,7.258,6.65
77.0,1492595.285,-1.6,1.6,2.9,4.0,2.475,2.46,9.404,8.558
78.0,1507873.561,-1.6,1.6,2.9,4.0,2.462,2.468,9.356,8.588
79.0,1523124.766,-1.6,1.6,2.9,4.0,2.47,2.46,9.384,8.561
80.0,1538423.856,-1.6,1.6,2.9,4.0,2.462,2.473,9.357,8.603
81.0,1553716.812,-1.6,1.6,2.9,4.0,2.474,2.459,9.401,8.56
82.0,1568999.073,-1.6,1.6,2.9,4.0,2.461,2.462,9.352,8.562
83.0,1584268.528,-1.6,1.6,2.9,4.0,2.463,2.456,9.363,8.545
84.0,1599553.741,-1.6,1.6,2.9,4.0,2.457,2.466,9.341,8.575
85.0,1614854.752,-1.6,1.6,2.9,4.0,2.468,2.465,9.378,8.574
86.0,1630143.018,-1.6,1.6,2.9,4.0,2.466,2.457,9.373,8.548
87.0,1645463.637,-1.6,1.6,2.9,4.0,2.459,2.467,9.348,8.578
88.0,1660781.945,-1.6,1.6,2.9,4.0,2.467,2.46,9.376,8.553
89.0,1676065.933,-1.6,1.6,2.9,4.0,2.461,2.452,9.355,8.531
90.0,1691388.88,-1.6,1.6,2.9,4.0,2.455,2.456,9.333,8.545
91.0,1706715.262,-1.6,1.6,2.9,4.0,2.458,2.46,9.346,8.556
92.0,1722058.647,-1.6,1.6,2.9,4.0,2.46,2.463,9.354,8.567
93.0,1737359.721,-1.6,1.6,2.9,4.001,2.466,2.477,9.371,8.619
94.0,1752492.18,-1.6,1.6,2.9,4.001,2.479,2.477,9.416,8.614
95.0,1767813.01,-1.6,1.6,2.9,4.001,2.479,2.478,9.415,8.621
96.0,1783123.756,-1.6,1.6,2.9,4.001,2.479,2.475,9.414,8.613
97.0,1798433.93,-1.6,1.6,2.9,4.001,2.477,2.475,9.408,8.611
98.0,1813750.565,-1.6,1.6,2.892,4.001,2.477,2.478,9.406,8.62
99.0,1829053.606,-1.6,1.6,2.9,4.001,2.479,2.471,9.413,8.598
100.0,1844393.799,-1.6,1.6,2.9,4.001,2.473,2.466,9.395,8.583
101.0,1859786.403,-1.6,1.6,2.9,4.004,2.461,2.399,9.36,8.33
102.0,1875118.227,-1.6,1.6,2.9,4.0,2.399,2.385,9.148,8.28
103.0,1890457.853,-1.6,1.6,2.9,4.0,2.386,2.379,9.104,8.256
104.0,1905789.038,-1.6,1.6,2.9,4.0,2.383,2.422,9.097,8.411
105.0,1921103.247,-1.6,1.6,2.9,4.0,2.425,2.433,9.233,8.454
106.0,1936429.845,-1.6,1.6,2.9,4.0,2.435,2.438,9.267,8.471
107.0,1951752.894,-1.6,1.6,2.9,4.0,2.439,2.439,9.282,8.478
108.0,1967066.949,-1.6,1.6,2.9,4.001,2.44,2.436,9.286,8.47
109.0,1982403.64,-1.6,1.6,2.9,4.0,2.437,2.426,9.275,8.43
110.0,1997746.46,-1.6,1.6,2.9,4.0,2.427,2.422,9.242,8.415
111.0,2013104.494,-1.6,1.6,2.9,4.0,2.424,2.427,9.232,8.435
112.0,2028448.038,-1.6,1.6,2.9,4.0,2.428,2.416,9.246,8.392
113.0,2043779.361,-1.6,1.6,2.9,4.0,2.417,2.413,9.209,8.381
114.0,2059127.572,-1.6,1.6,2.9,4.0,2.414,2.408,9.199,8.361
115.0,2074517.791,-1.6,1.6,2.9,4.0,2.41,2.418,9.185,8.404
116.0,2089858.121,-1.6,1.6,2.9,4.0,2.419,2.425,9.217,8.424
117.0,2105200.806,-1.6,1.6,2.9,4.0,2.427,2.422,9.242,8.413
118.0,2120551.508,-1.6,1.6,2.9,4.0,2.424,2.418,9.232,8.399
119.0,2135852.341,-1.6,1.6,2.9,4.0,2.42,2.432,9.219,8.449
120.0,2151211.869,-1.6,1.6,2.9,4.0,2.433,2.43,9.261,8.441
121.0,2166554.898,-1.6,1.6,2.9,4.0,2.431,2.419,9.253,8.403
122.0,2181916.275,-1.6,1.6,2.892,4.0,2.42,2.431,9.218,8.444
123.0,2197279.868,-1.6,1.6,2.9,4.0,2.431,2.421,9.256,8.407
124.0,2212636.984,-1.6,1.6,2.9,4.0,2.422,2.416,9.223,8.388
125.0,2227983.207,-1.6,1.6,2.9,4.0,2.418,2.418,9.211,8.399
126.0,2243379.495,-1.6,1.6,2.892,4.0,2.419,2.404,9.214,8.346
127.0,2258742.269,-1.6,1.6,2.9,4.0,2.406,2.407,9.17,8.358
128.0,2274106.278,-1.6,1.6,2.9,4.0,2.409,2.405,9.182,8.349
129.0,2282995.443,-1.6,1.6,2.9,4.0,1.839,1.844,6.903,6.271
130.0,2298473.106,-1.6,1.6,2.9,4.0,2.409,2.41,9.187,8.368
131.0,2313899.06,-1.6,1.6,2.9,4.0,2.411,2.389,9.191,8.291
132.0,2329346.436,-1.6,1.6,2.9,4.0,2.391,2.402,9.121,8.334
133.0,2344756.077,-1.6,1.6,2.9,4.0,2.403,2.399,9.163,8.324
134.0,2360145.915,-1.6,1.6,2.9,4.0,2.4,2.4,9.153,8.329
135.0,2375542.315,-1.6,1.6,2.9,4.0,2.401,2.396,9.154,8.314
136.0,2390927.955,-1.6,1.6,2.9,4.0,2.397,2.389,9.142,8.289
137.0,2406368.917,-1.6,1.6,2.9,4.0,2.39,2.398,9.12,8.32
138.0,2415205.903,-1.6,1.6,2.9,4.0,1.827,1.833,6.86,6.231
139.0,2430670.157,-1.6,1.6,2.9,4.0,2.404,2.397,9.17,8.315
140.0,2446073.275,-1.6,1.6,2.9,4.0,2.399,2.396,9.149,8.313
141.0,2461487.794,-1.6,1.6,2.9,4.0,2.397,2.398,9.141,8.317
142.0,2476965.133,-1.6,1.6,2.9,4.0,2.398,2.393,9.147,8.313
143.0,2485735.872,-1.6,1.6,2.899,4.0,1.814,1.817,6.811,6.171
144.0,2501218.983,-1.6,1.6,2.9,4.0,2.397,2.396,9.146,8.311
145.0,2516691.849,-1.6,1.6,2.9,4.0,2.398,2.4,9.145,8.324
146.0,2532094.67,-1.6,1.6,2.9,4.0,2.403,2.397,9.16,8.322
147.0,2547525.871,-1.6,1.6,2.9,4.0,2.398,2.389,9.146,8.287
148.0,2562936.761,-1.6,1.6,2.9,4.0,2.389,2.383,9.114,8.266
149.0,2578367.85,-1.6,1.6,2.9,4.0,2.384,2.383,9.099,8.263
150.0,2593767.727,-1.6,1.6,2.9,4.0,2.384,2.369,9.099,8.223
151.0,2609114.765,-1.6,1.6,2.9,4.0,2.37,2.378,9.048,8.245
152.0,2624574.235,-1.6,1.6,2.9,4.0,2.38,2.378,9.084,8.246
153.0,2640013.795,-1.6,1.6,2.9,4.0,2.378,2.375,9.078,8.235
154.0,2655476.184,-1.6,1.6,2.9,4.0,2.376,2.374,9.073,8.228
155.0,2670908.315,-1.603,1.6,2.897,4.0,2.375,2.369,9.067,8.213
156.0,2686347.151,-1.6,1.6,2.9,4.0,2.371,2.37,9.055,8.216
157.0,2701802.309,-1.6,1.6,2.9,4.0,2.369,2.362,9.049,8.184
158.0,2717289.441,-1.6,1.6,2.9,4.0,2.362,2.372,9.026,8.219
159.0,2732752.776,-1.6,1.6,2.9,4.0,2.374,2.369,9.063,8.211
160.0,2748197.032,-1.6,1.6,2.89,4.0,2.37,2.368,9.05,8.207
161.0,2763671.737,-1.6,1.6,2.9,4.0,2.368,2.37,9.046,8.214
162.0,2772311.112,-1.6,1.6,2.9,4.0,1.782,1.79,6.697,6.073
163.0,2787883.437,-1.6,1.6,2.9,4.0,2.377,2.36,9.079,8.175
164.0,2803349.656,-1.6,1.6,2.9,4.0,2.362,2.365,9.022,8.193
165.0,2818823.019,-1.6,1.6,2.9,4.0,2.366,2.366,9.039,8.2
166.0,2834301.646,-1.6,1.6,2.9,4.0,2.367,2.364,9.041,8.19
167.0,2849781.36,-1.6,1.6,2.9,4.0,2.365,2.362,9.035,8.187
168.0,2865332.772,-1.6,1.6,2.9,4.0,2.363,2.357,9.027,8.164
169.0,2880814.33,-1.6,1.6,2.9,4.0,2.36,2.377,9.017,8.241
170.0,2896269.04,-1.6,1.6,2.9,4.0,2.379,2.38,9.079,8.251
171.0,2911682.589,-1.6,1.6,2.9,4.0,2.381,2.359,9.088,8.176
172.0,2927141.273,-1.6,1.6,2.9,4.0,2.358,2.358,9.011,8.17
173.0,2942626.287,-1.6,1.6,2.9,4.0,2.358,2.364,9.01,8.187
174.0,2958114.211,-1.6,1.6,2.894,4.0,2.364,2.352,9.03,8.147
175.0,2973564.969,-1.6,1.6,2.9,4.0,2.354,2.357,8.995,8.167
176.0,2989057.175,-1.6,1.6,2.9,4.0,2.357,2.364,9.008,8.187
177.0,3004554.36,-1.6,1.6,2.9,4.0,2.365,2.357,9.033,8.166
178.0,3013121.571,-1.6,1.6,2.9,4.0,1.765,1.775,6.636,6.019
179.0,3028672.007,-1.6,1.6,2.9,4.0,2.367,2.358,9.047,8.168
180.0,3044128.428,-1.6,1.6,2.9,4.0,2.359,2.341,9.014,8.105
181.0,3059570.918,-1.6,1.6,2.9,4.0,2.342,2.348,8.955,8.131
182.0,3075099.522,-1.6,1.6,2.9,4.0,2.349,2.354,8.978,8.154
183.0,3090606.54,-1.6,1.6,2.9,4.0,2.355,2.347,8.996,8.127
184.0,3106108.83,-1.6,1.6,2.9,4.0,2.348,2.349,8.976,8.133
185.0,3121582.4,-1.6,1.6,2.9,4.0,2.349,2.341,8.98,8.107
186.0,3137094.308,-1.6,1.6,2.9,4.003,2.341,2.344,8.953,8.114
187.0,3152578.644,-1.6,1.6,2.9,4.0,2.345,2.343,8.968,8.115
188.0,3168091.893,-1.6,1.6,2.899,4.0,2.344,2.344,8.961,8.116
189.0,3183615.265,-1.6,1.6,2.9,4.0,2.345,2.346,8.965,8.124
190.0,3199118.337,-1.6,1.6,2.9,4.0,2.347,2.35,8.971,8.137
191.0,3214605.252,-1.6,1.6,2.9,4.0,2.352,2.35,8.988,8.141
192.0,3230086.015,-1.6,1.6,2.9,4.0,2.351,2.346,8.985,8.125
193.0,3245601.024,-1.6,1.6,2.9,4.0,2.348,2.354,8.975,8.155
194.0,3261086.609,-1.6,1.6,2.9,4.0,2.356,2.353,9.002,8.153
195.0,3276580.219,-1.6,1.6,2.898,4.0,2.355,2.357,8.998,8.166
196.0,3292058.03,-1.6,1.6,2.9,4.0,2.357,2.347,9.004,8.129
197.0,3307568.662,-1.6,1.6,2.9,4.0,2.347,2.343,8.973,8.115
198.0,3323055.148,-1.6,1.6,2.9,4.0,2.344,2.342,8.963,8.112
199.0,3338543.844,-1.6,1.6,2.9,4.0,2.344,2.342,8.96,8.112
200.0,3354035.058,-1.6,1.6,2.9,4.0,2.343,2.34,8.959,8.106
201.0,3369542.142,-1.6,1.6,2.9,4.0,2.341,2.338,8.952,8.1
202.0,3385033.48,-1.6,1.6,2.9,4.0,2.339,2.335,8.945,8.084
203.0,3400517.84,-1.6,1.6,2.9,4.0,2.336,2.333,8.934,8.077
204.0,3415997.393,-1.6,1.6,2.9,4.0,2.335,2.339,8.93,8.099
205.0,3431510.55,-1.6,1.6,2.9,4.0,2.34,2.335,8.947,8.085
206.0,3447043.043,-1.6,1.6,2.9,4.0,2.336,2.338,8.933,8.098
207.0,3462564.561,-1.6,1.6,2.9,4.0,2.339,2.332,8.945,8.076
208.0,3478057.139,-1.6,1.6,2.9,4.0,2.333,2.329,8.925,8.062
209.0,3493575.787,-1.6,1.6,2.9,4.0,2.33,2.331,8.914,8.071
210.0,3509080.011,-1.6,1.6,2.9,4.0,2.332,2.333,8.922,8.079
211.0,3524589.415,-1.6,1.6,2.9,4.0,2.334,2.331,8.927,8.07
212.0,3540075.281,-1.6,1.6,2.9,4.0,2.333,2.331,8.922,8.071
213.0,3555584.889,-1.6,1.6,2.9,4.0,2.331,2.326,8.919,8.052
214.0,3571114.358,-1.6,1.6,2.9,4.0,2.327,2.325,8.904,8.047
215.0,3586634.024,-1.6,1.6,2.9,4.0,2.327,2.329,8.904,8.063
216.0,3595014.146,-1.6,1.6,2.9,4.0,1.723,1.734,6.484,5.872
217.0,3610625.707,-1.6,1.6,2.9,4.0,2.34,2.327,8.955,8.053
218.0,3626114.629,-1.6,1.6,2.9,4.0,2.33,2.323,8.912,8.039
219.0,3641637.826,-1.6,1.6,2.9,4.0,2.324,2.325,8.895,8.049
220.0,3657155.298,-1.6,1.6,2.896,4.0,2.326,2.321,8.899,8.032
221.0,3665486.779,-1.6,1.6,2.9,4.0,1.709,1.726,6.435,5.843
222.0,3681121.807,-1.6,1.6,2.9,4.0,2.338,2.327,8.947,8.051
223.0,3689461.34,-1.6,1.6,2.9,4.0,1.718,1.72,6.463,5.822
224.0,3705093.223,-1.6,1.6,2.9,4.0,2.33,2.32,8.921,8.026
225.0,3720623.58,-1.6,1.6,2.9,4.0,2.322,2.319,8.886,8.026
226.0,3736169.616,-1.6,1.6,2.9,4.0,2.321,2.316,8.884,8.017
227.0,3751734.403,-1.6,1.6,2.9,4.0,2.317,2.32,8.872,8.027
228.0,3767276.191,-1.6,1.6,2.9,4.0,2.322,2.319,8.885,8.024
229.0,3782824.038,-1.6,1.6,2.9,4.0,2.32,2.317,8.879,8.019
230.0,3798361.601,-1.6,1.6,2.9,4.0,2.318,2.318,8.875,8.021
231.0,3813906.032,-1.6,1.6,2.899,4.0,2.319,2.314,8.876,8.006
232.0,3829415.194,-1.6,1.6,2.9,4.0,2.315,2.312,8.863,8.001
233.0,3837658.729,-1.6,1.6,2.9,4.0,1.693,1.703,6.376,5.76
234.0,3853332.808,-1.6,1.6,2.9,4.0,2.322,2.307,8.893,7.982
235.0,3868875.673,-1.6,1.6,2.9,4.0,2.31,2.31,8.846,7.994
236.0,3884442.971,-1.6,1.6,2.9,4.0,2.312,2.317,8.853,8.018
237.0,3900013.299,-1.6,1.6,2.9,4.0,2.317,2.308,8.869,7.985
238.0,3915567.538,-1.6,1.6,2.9,4.0,2.31,2.313,8.845,8.002
239.0,3931116.768,-1.6,1.6,2.9,4.0,2.313,2.302,8.857,7.962
240.0,3946677.99,-1.6,1.6,2.9,4.0,2.304,2.312,8.826,8.0
241.0,3962233.546,-1.6,1.6,2.9,4.0,2.313,2.311,8.855,7.995
242.0,3977797.089,-1.6,1.6,2.9,4.0,2.313,2.31,8.855,7.994
243.0,3993315.238,-1.6,1.6,2.9,4.0,2.311,2.307,8.845,7.98
244.0,4001559.203,-1.6,1.6,2.9,4.0,1.691,1.706,6.369,5.77
245.0,4017230.288,-1.6,1.6,2.9,4.0,2.321,2.307,8.887,7.976
246.0,4032790.765,-1.6,1.6,2.9,4.0,2.309,2.305,8.843,7.971
247.0,4048354.854,-1.6,1.6,2.899,4.0,2.306,2.302,8.83,7.963
248.0,4063915.485,-1.6,1.6,2.9,4.0,2.304,2.306,8.824,7.98
249.0,4079453.934,-1.6,1.6,2.9,4.003,2.307,2.31,8.833,7.989
250.0,4095043.344,-1.6,1.6,2.9,4.0,2.311,2.304,8.847,7.968
251.0,4110576.473,-1.6,1.6,2.9,4.0,2.305,2.299,8.827,7.954
252.0,4126140.603,-1.6,1.6,2.9,4.0,2.3,2.299,8.811,7.951
253.0,4141696.68,-1.6,1.6,2.9,4.0,2.3,2.298,8.81,7.949
254.0,4157234.461,-1.6,1.6,2.9,4.0,2.3,2.295,8.809,7.939
255.0,4172754.648,-1.6,1.6,2.9,4.0,2.297,2.304,8.798,7.967
256.0,4188310.996,-1.6,1.6,2.9,4.0,2.305,2.304,8.826,7.967
257.0,4203866.799,-1.6,1.6,2.9,4.0,2.305,2.303,8.828,7.965
258.0,4219419.221,-1.6,1.6,2.896,4.0,2.304,2.301,8.823,7.957
259.0,4234988.805,-1.6,1.6,2.9,4.0,2.301,2.309,8.814,7.988
260.0,4250501.733,-1.6,1.6,2.9,4.0,2.311,2.307,8.847,7.98
261.0,4266090.122,-1.6,1.6,2.9,4.0,2.308,2.304,8.837,7.968
262.0,4281634.692,-1.6,1.6,2.9,4.0,2.305,2.302,8.824,7.96
263.0,4297068.001,-1.6,1.6,2.9,4.0,2.303,2.294,8.82,7.933
264.0,4312601.418,-1.6,1.6,2.9,4.0,2.295,2.292,8.794,7.925
265.0,4328114.354,-1.6,1.6,2.9,4.0,2.294,2.302,8.79,7.963
266.0,4343653.193,-1.6,1.6,2.895,4.0,2.303,2.304,8.819,7.967
267.0,4359187.356,-1.6,1.6,2.9,4.0,2.306,2.305,8.828,7.975
268.0,4363714.188,0.896,1.6,3.371,4.0,1.931,0.0,7.33,0.0